Subj,Cond,Block,Trial,Order,Resp,Name,Stim,RT,Correct
1,1,1,1,1,49,N,Please wait for instructions,70648,TRUE
1,1,1,2,2,205,RIGHT,instructionfollowup\Slide1.bmp,10817,TRUE
1,1,1,3,3,9,9,instructionfollowup\Slide2.bmp,796,FALSE
1,1,1,3,4,57,SPACE,instructionfollowup\Slide3.bmp,3585,TRUE
1,1,1,4,15,9,9,mfaces\Slide1.bmp,1332,FALSE
1,1,1,5,21,1,1,mfaces\Slide2.bmp,1572,TRUE
1,1,1,6,8,9,9,mfaces\Slide3.bmp,1804,FALSE
1,1,1,7,18,1,1,mfaces\Slide4.bmp,1089,TRUE
1,1,1,8,16,9,9,mfaces\Slide5.bmp,1209,FALSE
1,1,1,9,11,1,1,mfaces\Slide6.bmp,1267,TRUE
1,1,1,10,20,9,9,mfaces\Slide7.bmp,1454,FALSE
1,1,1,11,17,9,9,mfaces\Slide8.bmp,1398,FALSE
1,1,1,12,12,9,9,mfaces\Slide9.bmp,1274,FALSE
1,1,1,13,24,1,1,mfaces\Slide10.bmp,1558,TRUE
1,1,1,14,19,9,9,mfaces\Slide11.bmp,1102,FALSE
1,1,1,15,14,-1,-1,mfaces\Slide12.bmp,2001,FALSE
1,1,1,16,22,9,9,mfaces\Slide13.bmp,1399,FALSE
1,1,1,17,13,9,9,mfaces\Slide14.bmp,1806,FALSE
1,1,1,18,7,1,1,mfaces\Slide15.bmp,1722,TRUE
1,1,1,19,23,9,9,mfaces\Slide16.bmp,1849,FALSE
1,1,1,20,10,1,1,mfaces\Slide17.bmp,1601,TRUE
1,1,1,21,9,-1,-1,mfaces\Slide18.bmp,2001,FALSE
1,1,1,22,6,9,9,mfaces\Slide19.bmp,1946,FALSE
1,1,1,23,5,9,9,mfaces\Slide20.bmp,1693,FALSE
1,1,1,26,25,57,SPACE,instructionfollowup\Slide4.bmp,2802,TRUE
1,1,1,2,50,57,SPACE,instructionfollowup\Slide5.bmp,7521,TRUE
1,1,1,51,58,9,9,mfaces\Slide1.bmp,1635,FALSE
1,1,1,52,51,1,1,mfaces\Slide2.bmp,1741,TRUE
1,1,1,53,52,9,9,mfaces\Slide3.bmp,1940,FALSE
1,1,1,54,64,1,1,mfaces\Slide4.bmp,1822,TRUE
1,1,1,55,55,9,9,mfaces\Slide5.bmp,1136,FALSE
1,1,1,56,56,1,1,mfaces\Slide6.bmp,1655,TRUE
1,1,1,57,66,9,9,mfaces\Slide7.bmp,1609,FALSE
1,1,1,58,53,1,1,mfaces\Slide8.bmp,1411,TRUE
1,1,1,59,67,9,9,mfaces\Slide9.bmp,1366,FALSE
1,1,1,60,62,1,1,mfaces\Slide10.bmp,1579,TRUE
1,1,1,61,54,1,1,mfaces\Slide11.bmp,1704,TRUE
1,1,1,62,65,9,9,mfaces\Slide12.bmp,1203,FALSE
1,1,1,63,57,1,1,mfaces\Slide13.bmp,1699,TRUE
1,1,1,64,60,9,9,mfaces\Slide14.bmp,1342,FALSE
1,1,1,65,70,1,1,mfaces\Slide15.bmp,1410,TRUE
1,1,1,66,69,9,9,mfaces\Slide16.bmp,1082,FALSE
1,1,1,67,61,1,1,mfaces\Slide17.bmp,1526,TRUE
1,1,1,68,63,9,9,mfaces\Slide18.bmp,1554,FALSE
1,1,1,69,59,-1,-1,mfaces\Slide19.bmp,2001,FALSE
1,1,1,70,68,9,9,mfaces\Slide20.bmp,1587,FALSE
1,1,1,26,71,57,SPACE,instructionfollowup\Slide4.bmp,2753,TRUE
1,1,1,135,96,28,ENTER,instructionfollowup\Slide8.bmp,11006,TRUE
1,1,1,119,99,1,1,Slide32.bmp,5686,TRUE
1,1,1,122,102,3,3,Slide32.bmp,2254,FALSE
1,1,1,125,105,4,4,Slide32.bmp,1468,FALSE
1,1,1,128,108,7,7,Slide32.bmp,253,FALSE
1,1,1,131,111,6,6,Slide32.bmp,1078,FALSE
1,1,1,134,114,6,6,Slide32.bmp,2003,FALSE
1,1,1,135,115,28,ENTER,instructionfollowup\Slide9.bmp,2013,TRUE
1,1,1,136,116,3,3,surveys\Slide2.bmp,8079,TRUE
1,1,1,137,117,2,2,surveys\Slide3.bmp,4991,FALSE
1,1,1,138,118,3,3,surveys\Slide4.bmp,6071,FALSE
1,1,1,139,119,1,1,surveys\Slide5.bmp,5102,TRUE
1,1,1,140,120,1,1,surveys\Slide6.bmp,2647,TRUE
1,1,1,141,121,1,1,surveys\Slide7.bmp,2383,TRUE
1,1,1,142,122,2,2,surveys\Slide8.bmp,2490,FALSE
1,1,1,143,123,3,3,surveys\Slide9.bmp,2547,FALSE
1,1,1,144,124,2,2,surveys\Slide10.bmp,4112,FALSE
1,1,1,145,125,2,2,surveys\Slide11.bmp,6088,TRUE
1,1,1,146,126,2,2,surveys\Slide12.bmp,12156,FALSE
1,1,1,147,127,3,3,surveys\Slide13.bmp,11029,FALSE
1,1,1,148,128,6,6,surveys\Slide14.bmp,8573,FALSE
1,1,1,149,129,2,2,surveys\Slide15.bmp,7854,FALSE
1,1,1,150,130,3,3,surveys\Slide16.bmp,8185,FALSE
1,1,1,151,131,6,6,surveys\Slide17.bmp,7895,FALSE
1,1,1,152,132,5,5,surveys\Slide18.bmp,7194,FALSE
1,1,1,153,133,6,6,surveys\Slide19.bmp,7943,FALSE
1,1,1,154,134,7,7,surveys\Slide20.bmp,13688,FALSE
1,1,1,155,135,5,5,surveys\Slide21.bmp,22992,FALSE
1,1,1,156,136,6,6,surveys\Slide22.bmp,8249,TRUE
1,1,1,157,137,1,1,surveys\Slide23.bmp,13760,TRUE
1,1,1,158,138,1,1,surveys\Slide24.bmp,4143,TRUE
1,1,1,159,139,1,1,surveys\Slide25.bmp,3672,TRUE
1,1,1,160,140,6,6,surveys\Slide26.bmp,5756,FALSE
1,1,1,161,141,5,5,surveys\Slide27.bmp,7486,FALSE
1,1,1,162,142,3,3,surveys\Slide28.bmp,8807,FALSE
1,1,1,163,143,4,4,surveys\Slide29.bmp,14508,FALSE
1,1,1,164,144,2,2,surveys\Slide30.bmp,6528,FALSE
1,1,1,165,145,1,1,surveys\Slide31.bmp,6945,TRUE
1,1,1,166,146,57,SPACE,surveys\Slide32.bmp,2440,TRUE
1,1,1,167,147,-1,19,What is your age (in years)?,3285,TRUE
1,1,1,168,148,1,1,surveys\Slide34.bmp,2860,TRUE
1,1,1,169,149,1,1,surveys\Slide35.bmp,2918,TRUE
1,1,1,170,150,2,2,surveys\Slide36.bmp,2812,FALSE
1,1,1,178,151,57,SPACE,Please see experimenter,2457197,TRUE
2,1,1,1,1,57,SPACE,Please wait for instructions,80339,TRUE
2,1,1,2,2,57,SPACE,instructionfollowup\Slide1.bmp,15625,TRUE
2,1,1,3,3,1,1,instructionfollowup\Slide2.bmp,956,TRUE
2,1,1,3,4,57,SPACE,instructionfollowup\Slide3.bmp,3389,TRUE
2,1,1,4,13,9,9,mfaces\Slide1.bmp,1022,FALSE
2,1,1,5,20,1,1,mfaces\Slide2.bmp,750,TRUE
2,1,1,6,10,1,1,mfaces\Slide3.bmp,1382,TRUE
2,1,1,7,9,1,1,mfaces\Slide4.bmp,948,TRUE
2,1,1,8,18,9,9,mfaces\Slide5.bmp,1027,FALSE
2,1,1,9,23,1,1,mfaces\Slide6.bmp,1125,TRUE
2,1,1,10,7,9,9,mfaces\Slide7.bmp,851,FALSE
2,1,1,11,24,1,1,mfaces\Slide8.bmp,1100,TRUE
2,1,1,12,5,9,9,mfaces\Slide9.bmp,1038,FALSE
2,1,1,13,6,1,1,mfaces\Slide10.bmp,1083,TRUE
2,1,1,14,17,1,1,mfaces\Slide11.bmp,1131,TRUE
2,1,1,15,19,9,9,mfaces\Slide12.bmp,1046,FALSE
2,1,1,16,15,1,1,mfaces\Slide13.bmp,1142,TRUE
2,1,1,17,16,1,1,mfaces\Slide14.bmp,1416,TRUE
2,1,1,18,14,1,1,mfaces\Slide15.bmp,1240,TRUE
2,1,1,19,11,9,9,mfaces\Slide16.bmp,848,FALSE
2,1,1,20,8,1,1,mfaces\Slide17.bmp,937,TRUE
2,1,1,21,22,9,9,mfaces\Slide18.bmp,1427,FALSE
2,1,1,22,12,1,1,mfaces\Slide19.bmp,1073,TRUE
2,1,1,23,21,9,9,mfaces\Slide20.bmp,1163,FALSE
2,1,1,26,25,57,SPACE,instructionfollowup\Slide4.bmp,3412,TRUE
2,1,1,2,50,57,SPACE,instructionfollowup\Slide5.bmp,5047,TRUE
2,1,1,51,68,9,9,mfaces\Slide1.bmp,1027,FALSE
2,1,1,52,64,1,1,mfaces\Slide2.bmp,844,TRUE
2,1,1,53,57,9,9,mfaces\Slide3.bmp,821,FALSE
2,1,1,54,52,1,1,mfaces\Slide4.bmp,749,TRUE
2,1,1,55,58,9,9,mfaces\Slide5.bmp,751,FALSE
2,1,1,56,70,1,1,mfaces\Slide6.bmp,1046,TRUE
2,1,1,57,54,9,9,mfaces\Slide7.bmp,715,FALSE
2,1,1,58,56,1,1,mfaces\Slide8.bmp,911,TRUE
2,1,1,59,69,9,9,mfaces\Slide9.bmp,926,FALSE
2,1,1,60,59,1,1,mfaces\Slide10.bmp,982,TRUE
2,1,1,61,61,1,1,mfaces\Slide11.bmp,1006,TRUE
2,1,1,62,53,9,9,mfaces\Slide12.bmp,804,FALSE
2,1,1,63,67,1,1,mfaces\Slide13.bmp,1764,TRUE
2,1,1,64,66,9,9,mfaces\Slide14.bmp,1324,FALSE
2,1,1,65,65,1,1,mfaces\Slide15.bmp,932,TRUE
2,1,1,66,63,9,9,mfaces\Slide16.bmp,771,FALSE
2,1,1,67,62,1,1,mfaces\Slide17.bmp,870,TRUE
2,1,1,68,51,9,9,mfaces\Slide18.bmp,1468,FALSE
2,1,1,69,55,1,1,mfaces\Slide19.bmp,849,TRUE
2,1,1,70,60,9,9,mfaces\Slide20.bmp,960,FALSE
2,1,1,26,71,57,SPACE,instructionfollowup\Slide4.bmp,2217,TRUE
2,1,1,135,96,57,SPACE,instructionfollowup\Slide8.bmp,23301,TRUE
2,1,1,119,99,1,1,Slide32.bmp,2114,TRUE
2,1,1,122,102,9,9,Slide32.bmp,428,FALSE
2,1,1,125,105,3,3,Slide32.bmp,562,FALSE
2,1,1,128,108,9,9,Slide32.bmp,234,FALSE
2,1,1,131,111,1,1,Slide32.bmp,264,TRUE
2,1,1,134,114,5,5,Slide32.bmp,291,FALSE
2,1,1,135,115,57,SPACE,instructionfollowup\Slide9.bmp,1816,TRUE
2,1,1,136,116,2,2,surveys\Slide2.bmp,11901,TRUE
2,1,1,137,117,1,1,surveys\Slide3.bmp,2724,TRUE
2,1,1,138,118,1,1,surveys\Slide4.bmp,1008,TRUE
2,1,1,139,119,1,1,surveys\Slide5.bmp,1101,TRUE
2,1,1,140,120,1,1,surveys\Slide6.bmp,1699,TRUE
2,1,1,141,121,1,1,surveys\Slide7.bmp,1306,TRUE
2,1,1,142,122,4,4,surveys\Slide8.bmp,1648,FALSE
2,1,1,143,123,2,2,surveys\Slide9.bmp,4861,FALSE
2,1,1,144,124,3,3,surveys\Slide10.bmp,3744,FALSE
2,1,1,145,125,57,SPACE,surveys\Slide11.bmp,3525,TRUE
2,1,1,146,126,2,2,surveys\Slide12.bmp,16023,FALSE
2,1,1,147,127,2,2,surveys\Slide13.bmp,7723,FALSE
2,1,1,148,128,3,3,surveys\Slide14.bmp,7877,FALSE
2,1,1,149,129,2,2,surveys\Slide15.bmp,12576,FALSE
2,1,1,150,130,5,5,surveys\Slide16.bmp,9729,FALSE
2,1,1,151,131,7,7,surveys\Slide17.bmp,8176,FALSE
2,1,1,152,132,3,3,surveys\Slide18.bmp,7654,FALSE
2,1,1,153,133,5,5,surveys\Slide19.bmp,9400,FALSE
2,1,1,154,134,6,6,surveys\Slide20.bmp,8872,FALSE
2,1,1,155,135,4,4,surveys\Slide21.bmp,8646,FALSE
2,1,1,156,136,57,SPACE,surveys\Slide22.bmp,5936,TRUE
2,1,1,157,137,3,3,surveys\Slide23.bmp,5623,FALSE
2,1,1,158,138,1,1,surveys\Slide24.bmp,5361,TRUE
2,1,1,159,139,1,1,surveys\Slide25.bmp,5343,TRUE
2,1,1,160,140,3,3,surveys\Slide26.bmp,9546,FALSE
2,1,1,161,141,1,1,surveys\Slide27.bmp,4983,TRUE
2,1,1,162,142,7,7,surveys\Slide28.bmp,9018,FALSE
2,1,1,163,143,3,3,surveys\Slide29.bmp,8862,FALSE
2,1,1,164,144,4,4,surveys\Slide30.bmp,8010,FALSE
2,1,1,165,145,1,1,surveys\Slide31.bmp,6038,TRUE
2,1,1,166,146,57,SPACE,surveys\Slide32.bmp,1284,TRUE
2,1,1,167,147,-1,19,What is your age (in years)?,6000,TRUE
2,1,1,168,148,1,1,surveys\Slide34.bmp,1522,TRUE
2,1,1,169,149,1,1,surveys\Slide35.bmp,1984,TRUE
2,1,1,170,150,1,1,surveys\Slide36.bmp,6957,TRUE
2,1,1,178,151,57,SPACE,Please see experimenter,2800279,TRUE
3,1,1,1,1,28,ENTER,Please wait for instructions,81896,TRUE
3,1,1,2,2,28,ENTER,instructionfollowup\Slide1.bmp,9092,TRUE
3,1,1,3,3,1,1,instructionfollowup\Slide2.bmp,762,TRUE
3,1,1,3,4,28,ENTER,instructionfollowup\Slide3.bmp,5480,TRUE
3,1,1,4,21,9,9,mfaces\Slide1.bmp,788,FALSE
3,1,1,5,8,1,1,mfaces\Slide2.bmp,1510,TRUE
3,1,1,6,17,1,1,mfaces\Slide3.bmp,894,TRUE
3,1,1,7,9,1,1,mfaces\Slide4.bmp,904,TRUE
3,1,1,8,23,9,9,mfaces\Slide5.bmp,428,FALSE
3,1,1,9,14,9,9,mfaces\Slide6.bmp,1118,FALSE
3,1,1,10,13,9,9,mfaces\Slide7.bmp,706,FALSE
3,1,1,11,24,1,1,mfaces\Slide8.bmp,620,TRUE
3,1,1,12,6,9,9,mfaces\Slide9.bmp,1920,FALSE
3,1,1,13,18,1,1,mfaces\Slide10.bmp,801,TRUE
3,1,1,14,20,1,1,mfaces\Slide11.bmp,696,TRUE
3,1,1,15,16,9,9,mfaces\Slide12.bmp,752,FALSE
3,1,1,16,5,1,1,mfaces\Slide13.bmp,1479,TRUE
3,1,1,17,10,9,9,mfaces\Slide14.bmp,811,FALSE
3,1,1,18,12,1,1,mfaces\Slide15.bmp,598,TRUE
3,1,1,19,19,9,9,mfaces\Slide16.bmp,690,FALSE
3,1,1,20,15,9,9,mfaces\Slide17.bmp,793,FALSE
3,1,1,21,11,9,9,mfaces\Slide18.bmp,738,FALSE
3,1,1,22,22,1,1,mfaces\Slide19.bmp,810,TRUE
3,1,1,23,7,9,9,mfaces\Slide20.bmp,1692,FALSE
3,1,1,26,25,28,ENTER,instructionfollowup\Slide4.bmp,4329,TRUE
3,1,1,2,50,28,ENTER,instructionfollowup\Slide5.bmp,4701,TRUE
3,1,1,51,62,1,1,mfaces\Slide1.bmp,795,TRUE
3,1,1,52,64,1,1,mfaces\Slide2.bmp,848,TRUE
3,1,1,53,63,1,1,mfaces\Slide3.bmp,918,TRUE
3,1,1,54,60,1,1,mfaces\Slide4.bmp,672,TRUE
3,1,1,55,68,9,9,mfaces\Slide5.bmp,678,FALSE
3,1,1,56,57,1,1,mfaces\Slide6.bmp,570,TRUE
3,1,1,57,61,1,1,mfaces\Slide7.bmp,781,TRUE
3,1,1,58,54,1,1,mfaces\Slide8.bmp,707,TRUE
3,1,1,59,65,1,1,mfaces\Slide9.bmp,718,TRUE
3,1,1,60,52,1,1,mfaces\Slide10.bmp,700,TRUE
3,1,1,61,53,9,9,mfaces\Slide11.bmp,1003,FALSE
3,1,1,62,70,9,9,mfaces\Slide12.bmp,600,FALSE
3,1,1,63,59,1,1,mfaces\Slide13.bmp,709,TRUE
3,1,1,64,51,9,9,mfaces\Slide14.bmp,839,FALSE
3,1,1,65,58,1,1,mfaces\Slide15.bmp,918,TRUE
3,1,1,66,66,1,1,mfaces\Slide16.bmp,976,TRUE
3,1,1,67,67,9,9,mfaces\Slide17.bmp,1008,FALSE
3,1,1,68,69,9,9,mfaces\Slide18.bmp,774,FALSE
3,1,1,69,56,1,1,mfaces\Slide19.bmp,660,TRUE
3,1,1,70,55,9,9,mfaces\Slide20.bmp,675,FALSE
3,1,1,26,71,28,ENTER,instructionfollowup\Slide4.bmp,1219,TRUE
3,1,1,135,96,28,ENTER,instructionfollowup\Slide8.bmp,14060,TRUE
3,1,1,119,99,7,7,Slide32.bmp,4469,FALSE
3,1,1,122,102,7,7,Slide32.bmp,612,FALSE
3,1,1,125,105,7,7,Slide32.bmp,563,FALSE
3,1,1,128,108,7,7,Slide32.bmp,484,FALSE
3,1,1,131,111,4,4,Slide32.bmp,303,FALSE
3,1,1,134,114,7,7,Slide32.bmp,366,FALSE
3,1,1,135,115,28,ENTER,instructionfollowup\Slide9.bmp,3628,TRUE
3,1,1,136,116,3,3,surveys\Slide2.bmp,9378,TRUE
3,1,1,137,117,1,1,surveys\Slide3.bmp,4326,TRUE
3,1,1,138,118,1,1,surveys\Slide4.bmp,1373,TRUE
3,1,1,139,119,1,1,surveys\Slide5.bmp,1161,TRUE
3,1,1,140,120,1,1,surveys\Slide6.bmp,965,TRUE
3,1,1,141,121,1,1,surveys\Slide7.bmp,768,TRUE
3,1,1,142,122,3,3,surveys\Slide8.bmp,2611,FALSE
3,1,1,143,123,2,2,surveys\Slide9.bmp,1067,FALSE
3,1,1,144,124,3,3,surveys\Slide10.bmp,1206,FALSE
3,1,1,145,125,28,ENTER,surveys\Slide11.bmp,5056,TRUE
3,1,1,146,126,5,5,surveys\Slide12.bmp,11360,FALSE
3,1,1,147,127,4,4,surveys\Slide13.bmp,4970,FALSE
3,1,1,148,128,4,4,surveys\Slide14.bmp,5595,FALSE
3,1,1,149,129,4,4,surveys\Slide15.bmp,6439,FALSE
3,1,1,150,130,3,3,surveys\Slide16.bmp,10551,FALSE
3,1,1,151,131,5,5,surveys\Slide17.bmp,5493,FALSE
3,1,1,152,132,4,4,surveys\Slide18.bmp,7623,FALSE
3,1,1,153,133,5,5,surveys\Slide19.bmp,6332,FALSE
3,1,1,154,134,4,4,surveys\Slide20.bmp,8102,FALSE
3,1,1,155,135,4,4,surveys\Slide21.bmp,7012,FALSE
3,1,1,156,136,4,4,surveys\Slide22.bmp,6687,TRUE
3,1,1,157,137,1,1,surveys\Slide23.bmp,7871,TRUE
3,1,1,158,138,1,1,surveys\Slide24.bmp,6793,TRUE
3,1,1,159,139,3,3,surveys\Slide25.bmp,8801,FALSE
3,1,1,160,140,3,3,surveys\Slide26.bmp,5766,FALSE
3,1,1,161,141,5,5,surveys\Slide27.bmp,5959,FALSE
3,1,1,162,142,3,3,surveys\Slide28.bmp,6348,FALSE
3,1,1,163,143,1,1,surveys\Slide29.bmp,5883,TRUE
3,1,1,164,144,3,3,surveys\Slide30.bmp,7494,FALSE
3,1,1,165,145,1,1,surveys\Slide31.bmp,5308,TRUE
3,1,1,166,146,35,H,surveys\Slide32.bmp,2699,TRUE
3,1,1,167,147,-1,20,What is your age (in years)?,4063,TRUE
3,1,1,168,148,2,2,surveys\Slide34.bmp,3000,FALSE
3,1,1,169,149,4,4,surveys\Slide35.bmp,2107,FALSE
3,1,1,170,150,1,1,surveys\Slide36.bmp,3315,TRUE
3,1,1,178,151,57,SPACE,Please see experimenter,3943457,TRUE
4,1,1,1,1,57,SPACE,Please wait for instructions,108241,TRUE
4,1,1,2,2,57,SPACE,instructionfollowup\Slide1.bmp,8905,TRUE
4,1,1,3,3,9,9,instructionfollowup\Slide2.bmp,2089,FALSE
4,1,1,3,4,57,SPACE,instructionfollowup\Slide3.bmp,5070,TRUE
4,1,1,4,24,9,9,mfaces\Slide1.bmp,1002,FALSE
4,1,1,5,9,1,1,mfaces\Slide2.bmp,969,TRUE
4,1,1,6,10,1,1,mfaces\Slide3.bmp,1512,TRUE
4,1,1,7,16,1,1,mfaces\Slide4.bmp,1397,TRUE
4,1,1,8,7,9,9,mfaces\Slide5.bmp,1241,FALSE
4,1,1,9,13,9,9,mfaces\Slide6.bmp,1123,FALSE
4,1,1,10,6,9,9,mfaces\Slide7.bmp,1094,FALSE
4,1,1,11,15,9,9,mfaces\Slide8.bmp,1282,FALSE
4,1,1,12,8,9,9,mfaces\Slide9.bmp,876,FALSE
4,1,1,13,21,1,1,mfaces\Slide10.bmp,1095,TRUE
4,1,1,14,11,9,9,mfaces\Slide11.bmp,1501,FALSE
4,1,1,15,23,9,9,mfaces\Slide12.bmp,1322,FALSE
4,1,1,16,12,9,9,mfaces\Slide13.bmp,1522,FALSE
4,1,1,17,14,-1,-1,mfaces\Slide14.bmp,2001,FALSE
4,1,1,18,20,1,1,mfaces\Slide15.bmp,1382,TRUE
4,1,1,19,5,1,1,mfaces\Slide16.bmp,1267,TRUE
4,1,1,20,18,9,9,mfaces\Slide17.bmp,1844,FALSE
4,1,1,21,22,-1,-1,mfaces\Slide18.bmp,2001,FALSE
4,1,1,22,17,9,9,mfaces\Slide19.bmp,951,FALSE
4,1,1,23,19,9,9,mfaces\Slide20.bmp,1952,FALSE
4,1,1,26,25,57,SPACE,instructionfollowup\Slide4.bmp,4893,TRUE
4,1,1,2,50,57,SPACE,instructionfollowup\Slide5.bmp,9136,TRUE
4,1,1,51,54,9,9,mfaces\Slide1.bmp,1031,FALSE
4,1,1,52,65,1,1,mfaces\Slide2.bmp,1129,TRUE
4,1,1,53,55,1,1,mfaces\Slide3.bmp,1228,TRUE
4,1,1,54,58,1,1,mfaces\Slide4.bmp,1561,TRUE
4,1,1,55,53,9,9,mfaces\Slide5.bmp,1321,FALSE
4,1,1,56,56,1,1,mfaces\Slide6.bmp,1506,TRUE
4,1,1,57,52,9,9,mfaces\Slide7.bmp,1108,FALSE
4,1,1,58,63,1,1,mfaces\Slide8.bmp,944,TRUE
4,1,1,59,68,9,9,mfaces\Slide9.bmp,1102,FALSE
4,1,1,60,61,1,1,mfaces\Slide10.bmp,1123,TRUE
4,1,1,61,66,1,1,mfaces\Slide11.bmp,734,TRUE
4,1,1,62,60,9,9,mfaces\Slide12.bmp,1131,FALSE
4,1,1,63,51,1,1,mfaces\Slide13.bmp,1123,TRUE
4,1,1,64,57,9,9,mfaces\Slide14.bmp,1113,FALSE
4,1,1,65,59,1,1,mfaces\Slide15.bmp,1267,TRUE
4,1,1,66,64,-1,-1,mfaces\Slide16.bmp,2001,FALSE
4,1,1,67,70,1,1,mfaces\Slide17.bmp,825,TRUE
4,1,1,68,67,9,9,mfaces\Slide18.bmp,1078,FALSE
4,1,1,69,69,9,9,mfaces\Slide19.bmp,980,FALSE
4,1,1,70,62,9,9,mfaces\Slide20.bmp,1156,FALSE
4,1,1,26,71,57,SPACE,instructionfollowup\Slide4.bmp,3122,TRUE
4,1,1,135,96,57,SPACE,instructionfollowup\Slide8.bmp,58907,TRUE
4,1,1,119,99,1,1,Slide32.bmp,1665,TRUE
4,1,1,122,102,8,8,Slide32.bmp,933,FALSE
4,1,1,125,105,3,3,Slide32.bmp,609,FALSE
4,1,1,128,108,8,8,Slide32.bmp,2781,FALSE
4,1,1,131,111,3,3,Slide32.bmp,629,FALSE
4,1,1,134,114,3,3,Slide32.bmp,523,FALSE
4,1,1,135,115,57,SPACE,instructionfollowup\Slide9.bmp,15597,TRUE
4,1,1,136,116,57,SPACE,surveys\Slide2.bmp,9256,TRUE
4,1,1,137,117,1,1,surveys\Slide3.bmp,3659,TRUE
4,1,1,138,118,1,1,surveys\Slide4.bmp,2914,TRUE
4,1,1,139,119,1,1,surveys\Slide5.bmp,1456,TRUE
4,1,1,140,120,1,1,surveys\Slide6.bmp,980,TRUE
4,1,1,141,121,1,1,surveys\Slide7.bmp,1474,TRUE
4,1,1,142,122,1,1,surveys\Slide8.bmp,2522,TRUE
4,1,1,143,123,2,2,surveys\Slide9.bmp,6182,FALSE
4,1,1,144,124,3,3,surveys\Slide10.bmp,5208,FALSE
4,1,1,145,125,57,SPACE,surveys\Slide11.bmp,6053,TRUE
4,1,1,146,126,5,5,surveys\Slide12.bmp,19032,FALSE
4,1,1,147,127,2,2,surveys\Slide13.bmp,8116,FALSE
4,1,1,148,128,2,2,surveys\Slide14.bmp,9434,FALSE
4,1,1,149,129,6,6,surveys\Slide15.bmp,8013,FALSE
4,1,1,150,130,2,2,surveys\Slide16.bmp,11330,FALSE
4,1,1,151,131,2,2,surveys\Slide17.bmp,5792,FALSE
4,1,1,152,132,5,5,surveys\Slide18.bmp,14085,FALSE
4,1,1,153,133,3,3,surveys\Slide19.bmp,11808,FALSE
4,1,1,154,134,6,6,surveys\Slide20.bmp,12926,FALSE
4,1,1,155,135,2,2,surveys\Slide21.bmp,6381,FALSE
4,1,1,156,136,47,V,surveys\Slide22.bmp,5165,TRUE
4,1,1,157,137,1,1,surveys\Slide23.bmp,6970,TRUE
4,1,1,158,138,1,1,surveys\Slide24.bmp,3415,TRUE
4,1,1,159,139,1,1,surveys\Slide25.bmp,3667,TRUE
4,1,1,160,140,3,3,surveys\Slide26.bmp,12769,FALSE
4,1,1,161,141,1,1,surveys\Slide27.bmp,5676,TRUE
4,1,1,162,142,5,5,surveys\Slide28.bmp,4985,FALSE
4,1,1,163,143,1,1,surveys\Slide29.bmp,4436,TRUE
4,1,1,164,144,1,1,surveys\Slide30.bmp,2721,TRUE
4,1,1,165,145,1,1,surveys\Slide31.bmp,2328,TRUE
4,1,1,166,146,57,SPACE,surveys\Slide32.bmp,1325,TRUE
4,1,1,167,147,-1,19,What is your age (in years)?,3940,TRUE
4,1,1,168,148,1,1,surveys\Slide34.bmp,1568,TRUE
4,1,1,169,149,1,1,surveys\Slide35.bmp,1885,TRUE
4,1,1,170,150,2,2,surveys\Slide36.bmp,2157,FALSE
4,1,1,178,151,57,SPACE,Please see experimenter,3852026,TRUE
5,1,1,1,1,57,SPACE,Please wait for instructions,60442,TRUE
5,1,1,2,2,57,SPACE,instructionfollowup\Slide1.bmp,10497,TRUE
5,1,1,3,3,9,9,instructionfollowup\Slide2.bmp,1921,FALSE
5,1,1,3,4,57,SPACE,instructionfollowup\Slide3.bmp,3882,TRUE
5,1,1,4,14,9,9,mfaces\Slide1.bmp,1188,FALSE
5,1,1,5,19,1,1,mfaces\Slide2.bmp,1318,TRUE
5,1,1,6,12,1,1,mfaces\Slide3.bmp,1428,TRUE
5,1,1,7,5,9,9,mfaces\Slide4.bmp,1476,FALSE
5,1,1,8,11,9,9,mfaces\Slide5.bmp,932,FALSE
5,1,1,9,16,9,9,mfaces\Slide6.bmp,962,FALSE
5,1,1,10,8,1,1,mfaces\Slide7.bmp,1084,TRUE
5,1,1,11,10,1,1,mfaces\Slide8.bmp,1178,TRUE
5,1,1,12,18,9,9,mfaces\Slide9.bmp,925,FALSE
5,1,1,13,17,1,1,mfaces\Slide10.bmp,1099,TRUE
5,1,1,14,7,1,1,mfaces\Slide11.bmp,924,TRUE
5,1,1,15,24,9,9,mfaces\Slide12.bmp,905,FALSE
5,1,1,16,6,9,9,mfaces\Slide13.bmp,1041,FALSE
5,1,1,17,20,9,9,mfaces\Slide14.bmp,1242,FALSE
5,1,1,18,9,9,9,mfaces\Slide15.bmp,1036,FALSE
5,1,1,19,21,1,1,mfaces\Slide16.bmp,1257,TRUE
5,1,1,20,22,1,1,mfaces\Slide17.bmp,1412,TRUE
5,1,1,21,15,9,9,mfaces\Slide18.bmp,1517,FALSE
5,1,1,22,23,1,1,mfaces\Slide19.bmp,1397,TRUE
5,1,1,23,13,1,1,mfaces\Slide20.bmp,1350,TRUE
5,1,1,26,25,57,SPACE,instructionfollowup\Slide4.bmp,3336,TRUE
5,1,1,2,50,57,SPACE,instructionfollowup\Slide5.bmp,4473,TRUE
5,1,1,51,52,9,9,mfaces\Slide1.bmp,1088,FALSE
5,1,1,52,68,1,1,mfaces\Slide2.bmp,1241,TRUE
5,1,1,53,69,9,9,mfaces\Slide3.bmp,1031,FALSE
5,1,1,54,55,1,1,mfaces\Slide4.bmp,1270,TRUE
5,1,1,55,62,9,9,mfaces\Slide5.bmp,1494,FALSE
5,1,1,56,57,1,1,mfaces\Slide6.bmp,1116,TRUE
5,1,1,57,65,9,9,mfaces\Slide7.bmp,1244,FALSE
5,1,1,58,63,1,1,mfaces\Slide8.bmp,1653,TRUE
5,1,1,59,51,9,9,mfaces\Slide9.bmp,1043,FALSE
5,1,1,60,56,1,1,mfaces\Slide10.bmp,1425,TRUE
5,1,1,61,67,9,9,mfaces\Slide11.bmp,1022,FALSE
5,1,1,62,66,9,9,mfaces\Slide12.bmp,1234,FALSE
5,1,1,63,60,1,1,mfaces\Slide13.bmp,1298,TRUE
5,1,1,64,61,9,9,mfaces\Slide14.bmp,1580,FALSE
5,1,1,65,70,1,1,mfaces\Slide15.bmp,1140,TRUE
5,1,1,66,59,9,9,mfaces\Slide16.bmp,1392,FALSE
5,1,1,67,53,1,1,mfaces\Slide17.bmp,1112,TRUE
5,1,1,68,54,9,9,mfaces\Slide18.bmp,1414,FALSE
5,1,1,69,58,9,9,mfaces\Slide19.bmp,1193,FALSE
5,1,1,70,64,9,9,mfaces\Slide20.bmp,1284,FALSE
5,1,1,26,71,57,SPACE,instructionfollowup\Slide4.bmp,1931,TRUE
5,1,1,135,96,57,SPACE,instructionfollowup\Slide8.bmp,12275,TRUE
5,1,1,119,99,3,3,Slide32.bmp,5551,FALSE
5,1,1,122,102,6,6,Slide32.bmp,1372,FALSE
5,1,1,125,105,9,9,Slide32.bmp,650,FALSE
5,1,1,128,108,9,9,Slide32.bmp,779,FALSE
5,1,1,131,111,2,2,Slide32.bmp,414,FALSE
5,1,1,134,114,2,2,Slide32.bmp,478,FALSE
5,1,1,135,115,57,SPACE,instructionfollowup\Slide9.bmp,816,TRUE
5,1,1,136,116,57,SPACE,surveys\Slide2.bmp,6032,TRUE
5,1,1,137,117,1,1,surveys\Slide3.bmp,2715,TRUE
5,1,1,138,118,1,1,surveys\Slide4.bmp,1091,TRUE
5,1,1,139,119,1,1,surveys\Slide5.bmp,1632,TRUE
5,1,1,140,120,2,2,surveys\Slide6.bmp,1466,FALSE
5,1,1,141,121,2,2,surveys\Slide7.bmp,2983,FALSE
5,1,1,142,122,2,2,surveys\Slide8.bmp,1907,FALSE
5,1,1,143,123,3,3,surveys\Slide9.bmp,1240,FALSE
5,1,1,144,124,4,4,surveys\Slide10.bmp,1057,FALSE
5,1,1,145,125,57,SPACE,surveys\Slide11.bmp,3784,TRUE
5,1,1,146,126,6,6,surveys\Slide12.bmp,17667,FALSE
5,1,1,147,127,2,2,surveys\Slide13.bmp,6701,FALSE
5,1,1,148,128,1,1,surveys\Slide14.bmp,8083,TRUE
5,1,1,149,129,3,3,surveys\Slide15.bmp,9261,FALSE
5,1,1,150,130,2,2,surveys\Slide16.bmp,5753,FALSE
5,1,1,151,131,3,3,surveys\Slide17.bmp,6306,FALSE
5,1,1,152,132,3,3,surveys\Slide18.bmp,14748,FALSE
5,1,1,153,133,1,1,surveys\Slide19.bmp,11610,TRUE
5,1,1,154,134,2,2,surveys\Slide20.bmp,7229,FALSE
5,1,1,155,135,3,3,surveys\Slide21.bmp,16324,FALSE
5,1,1,156,136,57,SPACE,surveys\Slide22.bmp,6442,TRUE
5,1,1,157,137,1,1,surveys\Slide23.bmp,7398,TRUE
5,1,1,158,138,1,1,surveys\Slide24.bmp,4065,TRUE
5,1,1,159,139,1,1,surveys\Slide25.bmp,3549,TRUE
5,1,1,160,140,2,2,surveys\Slide26.bmp,4466,FALSE
5,1,1,161,141,3,3,surveys\Slide27.bmp,4844,FALSE
5,1,1,162,142,7,7,surveys\Slide28.bmp,6969,FALSE
5,1,1,163,143,5,5,surveys\Slide29.bmp,8456,FALSE
5,1,1,164,144,6,6,surveys\Slide30.bmp,11539,FALSE
5,1,1,165,145,2,2,surveys\Slide31.bmp,4698,FALSE
5,1,1,166,146,2,2,surveys\Slide32.bmp,1411,TRUE
5,1,1,167,147,-1,19\,What is your age (in years)?,5255,TRUE
5,1,1,168,148,1,1,surveys\Slide34.bmp,1774,TRUE
5,1,1,169,149,1,1,surveys\Slide35.bmp,1455,TRUE
5,1,1,170,150,2,2,surveys\Slide36.bmp,1155,FALSE
5,1,1,178,151,57,SPACE,Please see experimenter,260871,TRUE
6,1,1,1,1,57,SPACE,Please wait for instructions,71433,TRUE
6,1,1,2,2,28,ENTER,instructionfollowup\Slide1.bmp,11292,TRUE
6,1,1,3,3,9,9,instructionfollowup\Slide2.bmp,64,FALSE
6,1,1,3,4,28,ENTER,instructionfollowup\Slide3.bmp,2737,TRUE
6,1,1,4,21,1,1,mfaces\Slide1.bmp,1147,TRUE
6,1,1,5,15,1,1,mfaces\Slide2.bmp,988,TRUE
6,1,1,6,11,1,1,mfaces\Slide3.bmp,990,TRUE
6,1,1,7,12,1,1,mfaces\Slide4.bmp,971,TRUE
6,1,1,8,19,9,9,mfaces\Slide5.bmp,1274,FALSE
6,1,1,9,8,-1,-1,mfaces\Slide6.bmp,2001,FALSE
6,1,1,10,13,9,9,mfaces\Slide7.bmp,1141,FALSE
6,1,1,11,23,-1,-1,mfaces\Slide8.bmp,2001,FALSE
6,1,1,12,7,9,9,mfaces\Slide9.bmp,1339,FALSE
6,1,1,13,17,1,1,mfaces\Slide10.bmp,1499,TRUE
6,1,1,14,22,9,9,mfaces\Slide11.bmp,1948,FALSE
6,1,1,15,6,1,1,mfaces\Slide12.bmp,1097,TRUE
6,1,1,16,24,-1,-1,mfaces\Slide13.bmp,2001,FALSE
6,1,1,17,16,9,9,mfaces\Slide14.bmp,1318,FALSE
6,1,1,18,20,9,9,mfaces\Slide15.bmp,1143,FALSE
6,1,1,19,5,-1,-1,mfaces\Slide16.bmp,2001,FALSE
6,1,1,20,18,9,9,mfaces\Slide17.bmp,1691,FALSE
6,1,1,21,14,9,9,mfaces\Slide18.bmp,1238,FALSE
6,1,1,22,9,1,1,mfaces\Slide19.bmp,1209,TRUE
6,1,1,23,10,9,9,mfaces\Slide20.bmp,1162,FALSE
6,1,1,26,25,28,ENTER,instructionfollowup\Slide4.bmp,1946,TRUE
6,1,1,2,50,28,ENTER,instructionfollowup\Slide5.bmp,8109,TRUE
6,1,1,51,60,9,9,mfaces\Slide1.bmp,1747,FALSE
6,1,1,52,53,9,9,mfaces\Slide2.bmp,1347,FALSE
6,1,1,53,64,1,1,mfaces\Slide3.bmp,1009,TRUE
6,1,1,54,57,1,1,mfaces\Slide4.bmp,1701,TRUE
6,1,1,55,56,9,9,mfaces\Slide5.bmp,1347,FALSE
6,1,1,56,63,1,1,mfaces\Slide6.bmp,875,TRUE
6,1,1,57,58,9,9,mfaces\Slide7.bmp,1367,FALSE
6,1,1,58,69,1,1,mfaces\Slide8.bmp,1059,TRUE
6,1,1,59,68,9,9,mfaces\Slide9.bmp,1310,FALSE
6,1,1,60,55,1,1,mfaces\Slide10.bmp,1763,TRUE
6,1,1,61,67,9,9,mfaces\Slide11.bmp,1753,FALSE
6,1,1,62,62,-1,-1,mfaces\Slide12.bmp,2001,FALSE
6,1,1,63,54,1,1,mfaces\Slide13.bmp,1213,TRUE
6,1,1,64,52,1,1,mfaces\Slide14.bmp,1178,TRUE
6,1,1,65,51,-1,-1,mfaces\Slide15.bmp,2001,FALSE
6,1,1,66,61,1,1,mfaces\Slide16.bmp,1789,TRUE
6,1,1,67,65,1,1,mfaces\Slide17.bmp,953,TRUE
6,1,1,68,66,9,9,mfaces\Slide18.bmp,902,FALSE
6,1,1,69,59,9,9,mfaces\Slide19.bmp,1711,FALSE
6,1,1,70,70,1,1,mfaces\Slide20.bmp,1178,TRUE
6,1,1,26,71,28,ENTER,instructionfollowup\Slide4.bmp,4039,TRUE
6,1,1,135,96,28,ENTER,instructionfollowup\Slide8.bmp,24376,TRUE
6,1,1,119,99,1,1,Slide32.bmp,5714,TRUE
6,1,1,122,102,8,8,Slide32.bmp,729,FALSE
6,1,1,125,105,2,2,Slide32.bmp,562,FALSE
6,1,1,128,108,8,8,Slide32.bmp,489,FALSE
6,1,1,131,111,9,9,Slide32.bmp,873,FALSE
6,1,1,134,114,4,4,Slide32.bmp,2558,FALSE
6,1,1,135,115,28,ENTER,instructionfollowup\Slide9.bmp,2229,TRUE
6,1,1,136,116,28,ENTER,surveys\Slide2.bmp,7934,TRUE
6,1,1,137,117,1,1,surveys\Slide3.bmp,2404,TRUE
6,1,1,138,118,1,1,surveys\Slide4.bmp,1894,TRUE
6,1,1,139,119,1,1,surveys\Slide5.bmp,1202,TRUE
6,1,1,140,120,2,2,surveys\Slide6.bmp,2619,FALSE
6,1,1,141,121,3,3,surveys\Slide7.bmp,2370,FALSE
6,1,1,142,122,3,3,surveys\Slide8.bmp,3363,FALSE
6,1,1,143,123,1,1,surveys\Slide9.bmp,867,TRUE
6,1,1,144,124,4,4,surveys\Slide10.bmp,2354,FALSE
6,1,1,145,125,28,ENTER,surveys\Slide11.bmp,4156,TRUE
6,1,1,146,126,3,3,surveys\Slide12.bmp,13738,FALSE
6,1,1,147,127,5,5,surveys\Slide13.bmp,6337,FALSE
6,1,1,148,128,6,6,surveys\Slide14.bmp,9012,FALSE
6,1,1,149,129,2,2,surveys\Slide15.bmp,7144,FALSE
6,1,1,150,130,3,3,surveys\Slide16.bmp,8529,FALSE
6,1,1,151,131,2,2,surveys\Slide17.bmp,12002,FALSE
6,1,1,152,132,2,2,surveys\Slide18.bmp,7335,FALSE
6,1,1,153,133,6,6,surveys\Slide19.bmp,13540,FALSE
6,1,1,154,134,6,6,surveys\Slide20.bmp,10210,FALSE
6,1,1,155,135,5,5,surveys\Slide21.bmp,10943,FALSE
6,1,1,156,136,57,SPACE,surveys\Slide22.bmp,5017,TRUE
6,1,1,157,137,2,2,surveys\Slide23.bmp,7848,FALSE
6,1,1,158,138,1,1,surveys\Slide24.bmp,6075,TRUE
6,1,1,159,139,1,1,surveys\Slide25.bmp,6920,TRUE
6,1,1,160,140,4,4,surveys\Slide26.bmp,5668,FALSE
6,1,1,161,141,1,1,surveys\Slide27.bmp,6502,TRUE
6,1,1,162,142,4,4,surveys\Slide28.bmp,6159,FALSE
6,1,1,163,143,2,2,surveys\Slide29.bmp,13515,FALSE
6,1,1,164,144,2,2,surveys\Slide30.bmp,5781,FALSE
6,1,1,165,145,1,1,surveys\Slide31.bmp,7451,TRUE
6,1,1,166,146,57,SPACE,surveys\Slide32.bmp,2002,TRUE
6,1,1,167,147,-1,18,What is your age (in years)?,5202,TRUE
6,1,1,168,148,1,1,surveys\Slide34.bmp,2773,TRUE
6,1,1,169,149,1,1,surveys\Slide35.bmp,5528,TRUE
6,1,1,170,150,1,1,surveys\Slide36.bmp,1742,TRUE
6,1,1,178,151,57,SPACE,Please see experimenter,393200,TRUE
7,1,1,1,1,57,SPACE,Please wait for instructions,44691,TRUE
7,1,1,2,2,1,1,instructionfollowup\Slide1.bmp,13361,TRUE
7,1,1,3,3,9,9,instructionfollowup\Slide2.bmp,722,FALSE
7,1,1,3,4,9,9,instructionfollowup\Slide3.bmp,5284,TRUE
7,1,1,4,16,9,9,mfaces\Slide1.bmp,1092,FALSE
7,1,1,5,22,1,1,mfaces\Slide2.bmp,1295,TRUE
7,1,1,6,11,1,1,mfaces\Slide3.bmp,1198,TRUE
7,1,1,7,19,1,1,mfaces\Slide4.bmp,1012,TRUE
7,1,1,8,15,9,9,mfaces\Slide5.bmp,1176,FALSE
7,1,1,9,9,1,1,mfaces\Slide6.bmp,1335,TRUE
7,1,1,10,13,9,9,mfaces\Slide7.bmp,1198,FALSE
7,1,1,11,14,1,1,mfaces\Slide8.bmp,955,TRUE
7,1,1,12,8,9,9,mfaces\Slide9.bmp,1380,FALSE
7,1,1,13,10,1,1,mfaces\Slide10.bmp,1207,TRUE
7,1,1,14,20,1,1,mfaces\Slide11.bmp,827,TRUE
7,1,1,15,6,9,9,mfaces\Slide12.bmp,1599,FALSE
7,1,1,16,23,1,1,mfaces\Slide13.bmp,1462,TRUE
7,1,1,17,5,-1,-1,mfaces\Slide14.bmp,2001,FALSE
7,1,1,18,12,1,1,mfaces\Slide15.bmp,1308,TRUE
7,1,1,19,24,9,9,mfaces\Slide16.bmp,1557,FALSE
7,1,1,20,18,1,1,mfaces\Slide17.bmp,1043,TRUE
7,1,1,21,21,9,9,mfaces\Slide18.bmp,1006,FALSE
7,1,1,22,17,1,1,mfaces\Slide19.bmp,1252,TRUE
7,1,1,23,7,1,1,mfaces\Slide20.bmp,1182,TRUE
7,1,1,26,25,1,1,instructionfollowup\Slide4.bmp,3502,TRUE
7,1,1,2,50,9,9,instructionfollowup\Slide5.bmp,13876,TRUE
7,1,1,51,51,9,9,mfaces\Slide1.bmp,1055,FALSE
7,1,1,52,55,1,1,mfaces\Slide2.bmp,1214,TRUE
7,1,1,53,62,9,9,mfaces\Slide3.bmp,1612,FALSE
7,1,1,54,67,1,1,mfaces\Slide4.bmp,1557,TRUE
7,1,1,55,63,9,9,mfaces\Slide5.bmp,1130,FALSE
7,1,1,56,70,1,1,mfaces\Slide6.bmp,1213,TRUE
7,1,1,57,59,9,9,mfaces\Slide7.bmp,1034,FALSE
7,1,1,58,58,1,1,mfaces\Slide8.bmp,864,TRUE
7,1,1,59,57,9,9,mfaces\Slide9.bmp,823,FALSE
7,1,1,60,56,1,1,mfaces\Slide10.bmp,1221,TRUE
7,1,1,61,53,1,1,mfaces\Slide11.bmp,1459,TRUE
7,1,1,62,60,9,9,mfaces\Slide12.bmp,912,FALSE
7,1,1,63,64,1,1,mfaces\Slide13.bmp,1107,TRUE
7,1,1,64,69,9,9,mfaces\Slide14.bmp,1258,FALSE
7,1,1,65,68,1,1,mfaces\Slide15.bmp,1870,TRUE
7,1,1,66,61,9,9,mfaces\Slide16.bmp,1077,FALSE
7,1,1,67,52,1,1,mfaces\Slide17.bmp,1123,TRUE
7,1,1,68,66,9,9,mfaces\Slide18.bmp,1643,FALSE
7,1,1,69,65,1,1,mfaces\Slide19.bmp,1282,TRUE
7,1,1,70,54,9,9,mfaces\Slide20.bmp,926,FALSE
7,1,1,26,71,9,9,instructionfollowup\Slide4.bmp,1847,TRUE
7,1,1,135,96,1,1,instructionfollowup\Slide8.bmp,22470,TRUE
7,1,1,119,99,1,1,Slide32.bmp,844,TRUE
7,1,1,122,102,9,9,Slide32.bmp,677,FALSE
7,1,1,125,105,1,1,Slide32.bmp,625,TRUE
7,1,1,128,108,7,7,Slide32.bmp,1012,FALSE
7,1,1,131,111,3,3,Slide32.bmp,243,FALSE
7,1,1,134,114,3,3,Slide32.bmp,556,FALSE
7,1,1,135,115,9,9,instructionfollowup\Slide9.bmp,2309,TRUE
7,1,1,136,116,4,4,surveys\Slide2.bmp,12244,TRUE
7,1,1,137,117,2,2,surveys\Slide3.bmp,3213,FALSE
7,1,1,138,118,2,2,surveys\Slide4.bmp,1193,FALSE
7,1,1,139,119,2,2,surveys\Slide5.bmp,3915,FALSE
7,1,1,140,120,2,2,surveys\Slide6.bmp,867,FALSE
7,1,1,141,121,4,4,surveys\Slide7.bmp,2907,FALSE
7,1,1,142,122,3,3,surveys\Slide8.bmp,1336,FALSE
7,1,1,143,123,3,3,surveys\Slide9.bmp,968,FALSE
7,1,1,144,124,2,2,surveys\Slide10.bmp,702,FALSE
7,1,1,145,125,3,3,surveys\Slide11.bmp,6510,TRUE
7,1,1,146,126,5,5,surveys\Slide12.bmp,10927,FALSE
7,1,1,147,127,5,5,surveys\Slide13.bmp,1998,FALSE
7,1,1,148,128,3,3,surveys\Slide14.bmp,557,FALSE
7,1,1,149,129,3,3,surveys\Slide15.bmp,5205,FALSE
7,1,1,150,130,3,3,surveys\Slide16.bmp,3818,FALSE
7,1,1,151,131,5,5,surveys\Slide17.bmp,6955,FALSE
7,1,1,152,132,3,3,surveys\Slide18.bmp,3913,FALSE
7,1,1,153,133,3,3,surveys\Slide19.bmp,4818,FALSE
7,1,1,154,134,3,3,surveys\Slide20.bmp,595,FALSE
7,1,1,155,135,3,3,surveys\Slide21.bmp,5093,FALSE
7,1,1,156,136,3,3,surveys\Slide22.bmp,4701,TRUE
7,1,1,157,137,2,2,surveys\Slide23.bmp,5935,FALSE
7,1,1,158,138,1,1,surveys\Slide24.bmp,9669,TRUE
7,1,1,159,139,2,2,surveys\Slide25.bmp,5386,FALSE
7,1,1,160,140,2,2,surveys\Slide26.bmp,4061,FALSE
7,1,1,161,141,1,1,surveys\Slide27.bmp,4162,TRUE
7,1,1,162,142,6,6,surveys\Slide28.bmp,4351,FALSE
7,1,1,163,143,2,2,surveys\Slide29.bmp,7106,FALSE
7,1,1,164,144,1,1,surveys\Slide30.bmp,5043,TRUE
7,1,1,165,145,1,1,surveys\Slide31.bmp,1816,TRUE
7,1,1,166,146,57,SPACE,surveys\Slide32.bmp,1588,TRUE
7,1,1,167,147,-1,19,What is your age (in years)?,4140,TRUE
7,1,1,168,148,1,1,surveys\Slide34.bmp,1414,TRUE
7,1,1,169,149,1,1,surveys\Slide35.bmp,1890,TRUE
7,1,1,170,150,2,2,surveys\Slide36.bmp,1102,FALSE
7,1,1,178,151,57,SPACE,Please see experimenter,640842,TRUE
8,1,1,1,1,57,SPACE,Please wait for instructions,72791,TRUE
8,1,1,2,2,57,SPACE,instructionfollowup\Slide1.bmp,23216,TRUE
8,1,1,3,3,9,9,instructionfollowup\Slide2.bmp,5168,FALSE
8,1,1,3,4,57,SPACE,instructionfollowup\Slide3.bmp,8672,TRUE
8,1,1,4,11,1,1,mfaces\Slide1.bmp,1010,TRUE
8,1,1,5,16,1,1,mfaces\Slide2.bmp,882,TRUE
8,1,1,6,13,9,9,mfaces\Slide3.bmp,1000,FALSE
8,1,1,7,5,9,9,mfaces\Slide4.bmp,838,FALSE
8,1,1,8,20,9,9,mfaces\Slide5.bmp,798,FALSE
8,1,1,9,8,1,1,mfaces\Slide6.bmp,884,TRUE
8,1,1,10,9,9,9,mfaces\Slide7.bmp,829,FALSE
8,1,1,11,10,9,9,mfaces\Slide8.bmp,1167,FALSE
8,1,1,12,7,9,9,mfaces\Slide9.bmp,831,FALSE
8,1,1,13,22,1,1,mfaces\Slide10.bmp,743,TRUE
8,1,1,14,18,1,1,mfaces\Slide11.bmp,655,TRUE
8,1,1,15,6,1,1,mfaces\Slide12.bmp,1111,TRUE
8,1,1,16,12,1,1,mfaces\Slide13.bmp,989,TRUE
8,1,1,17,21,9,9,mfaces\Slide14.bmp,933,FALSE
8,1,1,18,24,9,9,mfaces\Slide15.bmp,616,FALSE
8,1,1,19,14,9,9,mfaces\Slide16.bmp,878,FALSE
8,1,1,20,17,1,1,mfaces\Slide17.bmp,825,TRUE
8,1,1,21,15,9,9,mfaces\Slide18.bmp,795,FALSE
8,1,1,22,23,1,1,mfaces\Slide19.bmp,648,TRUE
8,1,1,23,19,1,1,mfaces\Slide20.bmp,701,TRUE
8,1,1,26,25,57,SPACE,instructionfollowup\Slide4.bmp,7747,TRUE
8,1,1,2,50,57,SPACE,instructionfollowup\Slide5.bmp,12001,TRUE
8,1,1,51,67,1,1,mfaces\Slide1.bmp,799,TRUE
8,1,1,52,59,1,1,mfaces\Slide2.bmp,789,TRUE
8,1,1,53,64,9,9,mfaces\Slide3.bmp,844,FALSE
8,1,1,54,69,1,1,mfaces\Slide4.bmp,876,TRUE
8,1,1,55,60,9,9,mfaces\Slide5.bmp,778,FALSE
8,1,1,56,61,1,1,mfaces\Slide6.bmp,851,TRUE
8,1,1,57,53,1,1,mfaces\Slide7.bmp,516,TRUE
8,1,1,58,55,9,9,mfaces\Slide8.bmp,579,FALSE
8,1,1,59,65,9,9,mfaces\Slide9.bmp,731,FALSE
8,1,1,60,51,9,9,mfaces\Slide10.bmp,741,FALSE
8,1,1,61,63,1,1,mfaces\Slide11.bmp,702,TRUE
8,1,1,62,70,9,9,mfaces\Slide12.bmp,921,FALSE
8,1,1,63,54,1,1,mfaces\Slide13.bmp,608,TRUE
8,1,1,64,58,1,1,mfaces\Slide14.bmp,1090,TRUE
8,1,1,65,56,1,1,mfaces\Slide15.bmp,661,TRUE
8,1,1,66,68,9,9,mfaces\Slide16.bmp,955,FALSE
8,1,1,67,62,1,1,mfaces\Slide17.bmp,771,TRUE
8,1,1,68,57,9,9,mfaces\Slide18.bmp,741,FALSE
8,1,1,69,66,1,1,mfaces\Slide19.bmp,963,TRUE
8,1,1,70,52,9,9,mfaces\Slide20.bmp,668,FALSE
8,1,1,26,71,57,SPACE,instructionfollowup\Slide4.bmp,3309,TRUE
8,1,1,135,96,57,SPACE,instructionfollowup\Slide8.bmp,32680,TRUE
8,1,1,119,99,2,2,Slide32.bmp,2313,FALSE
8,1,1,122,102,7,7,Slide32.bmp,1885,FALSE
8,1,1,125,105,1,1,Slide32.bmp,601,TRUE
8,1,1,128,108,7,7,Slide32.bmp,532,FALSE
8,1,1,131,111,4,4,Slide32.bmp,780,FALSE
8,1,1,134,114,1,1,Slide32.bmp,412,TRUE
8,1,1,135,115,57,SPACE,instructionfollowup\Slide9.bmp,2223,TRUE
8,1,1,136,116,57,SPACE,surveys\Slide2.bmp,13154,TRUE
8,1,1,137,117,1,1,surveys\Slide3.bmp,3344,TRUE
8,1,1,138,118,2,2,surveys\Slide4.bmp,4114,FALSE
8,1,1,139,119,1,1,surveys\Slide5.bmp,1724,TRUE
8,1,1,140,120,1,1,surveys\Slide6.bmp,1846,TRUE
8,1,1,141,121,1,1,surveys\Slide7.bmp,2532,TRUE
8,1,1,142,122,2,2,surveys\Slide8.bmp,1829,FALSE
8,1,1,143,123,3,3,surveys\Slide9.bmp,2438,FALSE
8,1,1,144,124,3,3,surveys\Slide10.bmp,1828,FALSE
8,1,1,145,125,57,SPACE,surveys\Slide11.bmp,12213,TRUE
8,1,1,146,126,4,4,surveys\Slide12.bmp,14616,FALSE
8,1,1,147,127,5,5,surveys\Slide13.bmp,6288,FALSE
8,1,1,148,128,6,6,surveys\Slide14.bmp,5136,FALSE
8,1,1,149,129,3,3,surveys\Slide15.bmp,8105,FALSE
8,1,1,150,130,2,2,surveys\Slide16.bmp,6727,FALSE
8,1,1,151,131,4,4,surveys\Slide17.bmp,7923,FALSE
8,1,1,152,132,2,2,surveys\Slide18.bmp,5975,FALSE
8,1,1,153,133,4,4,surveys\Slide19.bmp,7701,FALSE
8,1,1,154,134,4,4,surveys\Slide20.bmp,18918,FALSE
8,1,1,155,135,4,4,surveys\Slide21.bmp,17223,FALSE
8,1,1,156,136,57,SPACE,surveys\Slide22.bmp,7487,TRUE
8,1,1,157,137,1,1,surveys\Slide23.bmp,9666,TRUE
8,1,1,158,138,1,1,surveys\Slide24.bmp,5873,TRUE
8,1,1,159,139,1,1,surveys\Slide25.bmp,4469,TRUE
8,1,1,160,140,1,1,surveys\Slide26.bmp,12626,TRUE
8,1,1,161,141,1,1,surveys\Slide27.bmp,5122,TRUE
8,1,1,162,142,7,7,surveys\Slide28.bmp,6643,FALSE
8,1,1,163,143,2,2,surveys\Slide29.bmp,9771,FALSE
8,1,1,164,144,2,2,surveys\Slide30.bmp,4077,FALSE
8,1,1,165,145,1,1,surveys\Slide31.bmp,5326,TRUE
8,1,1,166,146,57,SPACE,surveys\Slide32.bmp,2203,TRUE
8,1,1,167,147,-1,18,What is your age (in years)?,15955,TRUE
8,1,1,168,148,1,1,surveys\Slide34.bmp,3075,TRUE
8,1,1,169,149,1,1,surveys\Slide35.bmp,3182,TRUE
8,1,1,170,150,1,1,surveys\Slide36.bmp,2135,TRUE
8,1,1,178,151,57,SPACE,Please see experimenter,659024,TRUE
9,1,1,1,1,57,SPACE,Please wait for instructions,70531,TRUE
9,1,1,2,2,28,ENTER,instructionfollowup\Slide1.bmp,8928,TRUE
9,1,1,3,3,9,9,instructionfollowup\Slide2.bmp,144,FALSE
9,1,1,3,4,57,SPACE,instructionfollowup\Slide3.bmp,4265,TRUE
9,1,1,4,7,9,9,mfaces\Slide1.bmp,1373,FALSE
9,1,1,5,17,1,1,mfaces\Slide2.bmp,1259,TRUE
9,1,1,6,12,9,9,mfaces\Slide3.bmp,1701,FALSE
9,1,1,7,23,1,1,mfaces\Slide4.bmp,809,TRUE
9,1,1,8,22,1,1,mfaces\Slide5.bmp,809,TRUE
9,1,1,9,11,1,1,mfaces\Slide6.bmp,1000,TRUE
9,1,1,10,19,9,9,mfaces\Slide7.bmp,1243,FALSE
9,1,1,11,9,9,9,mfaces\Slide8.bmp,1172,FALSE
9,1,1,12,15,9,9,mfaces\Slide9.bmp,887,FALSE
9,1,1,13,5,1,1,mfaces\Slide10.bmp,1050,TRUE
9,1,1,14,24,9,9,mfaces\Slide11.bmp,782,FALSE
9,1,1,15,6,9,9,mfaces\Slide12.bmp,923,FALSE
9,1,1,16,14,1,1,mfaces\Slide13.bmp,1066,TRUE
9,1,1,17,16,9,9,mfaces\Slide14.bmp,1059,FALSE
9,1,1,18,21,1,1,mfaces\Slide15.bmp,802,TRUE
9,1,1,19,13,1,1,mfaces\Slide16.bmp,1681,TRUE
9,1,1,20,10,9,9,mfaces\Slide17.bmp,1349,FALSE
9,1,1,21,20,-1,-1,mfaces\Slide18.bmp,2001,FALSE
9,1,1,22,8,9,9,mfaces\Slide19.bmp,1138,FALSE
9,1,1,23,18,1,1,mfaces\Slide20.bmp,1216,TRUE
9,1,1,26,25,57,SPACE,instructionfollowup\Slide4.bmp,2040,TRUE
9,1,1,2,50,57,SPACE,instructionfollowup\Slide5.bmp,3652,TRUE
9,1,1,51,70,9,9,mfaces\Slide1.bmp,733,FALSE
9,1,1,52,64,1,1,mfaces\Slide2.bmp,678,TRUE
9,1,1,53,52,9,9,mfaces\Slide3.bmp,690,FALSE
9,1,1,54,51,1,1,mfaces\Slide4.bmp,780,TRUE
9,1,1,55,58,9,9,mfaces\Slide5.bmp,848,FALSE
9,1,1,56,54,1,1,mfaces\Slide6.bmp,719,TRUE
9,1,1,57,66,9,9,mfaces\Slide7.bmp,787,FALSE
9,1,1,58,61,1,1,mfaces\Slide8.bmp,686,TRUE
9,1,1,59,53,9,9,mfaces\Slide9.bmp,1007,FALSE
9,1,1,60,67,1,1,mfaces\Slide10.bmp,634,TRUE
9,1,1,61,57,9,9,mfaces\Slide11.bmp,774,FALSE
9,1,1,62,65,9,9,mfaces\Slide12.bmp,682,FALSE
9,1,1,63,55,1,1,mfaces\Slide13.bmp,769,TRUE
9,1,1,64,68,9,9,mfaces\Slide14.bmp,699,FALSE
9,1,1,65,56,1,1,mfaces\Slide15.bmp,994,TRUE
9,1,1,66,69,9,9,mfaces\Slide16.bmp,654,FALSE
9,1,1,67,63,1,1,mfaces\Slide17.bmp,636,TRUE
9,1,1,68,60,9,9,mfaces\Slide18.bmp,673,FALSE
9,1,1,69,62,9,9,mfaces\Slide19.bmp,761,FALSE
9,1,1,70,59,1,1,mfaces\Slide20.bmp,1260,TRUE
9,1,1,26,71,57,SPACE,instructionfollowup\Slide4.bmp,1878,TRUE
9,1,1,135,96,28,ENTER,instructionfollowup\Slide8.bmp,22112,TRUE
9,1,1,119,99,1,1,Slide32.bmp,914,TRUE
9,1,1,122,102,1,1,Slide32.bmp,296,TRUE
9,1,1,125,105,5,5,Slide32.bmp,213,FALSE
9,1,1,128,108,5,5,Slide32.bmp,1406,FALSE
9,1,1,131,111,1,1,Slide32.bmp,251,TRUE
9,1,1,134,114,5,5,Slide32.bmp,1629,FALSE
9,1,1,135,115,28,ENTER,instructionfollowup\Slide9.bmp,2269,TRUE
9,1,1,136,116,2,2,surveys\Slide2.bmp,5550,TRUE
9,1,1,137,117,1,1,surveys\Slide3.bmp,2336,TRUE
9,1,1,138,118,2,2,surveys\Slide4.bmp,1922,FALSE
9,1,1,139,119,1,1,surveys\Slide5.bmp,1226,TRUE
9,1,1,140,120,1,1,surveys\Slide6.bmp,937,TRUE
9,1,1,141,121,2,2,surveys\Slide7.bmp,1459,FALSE
9,1,1,142,122,3,3,surveys\Slide8.bmp,1585,FALSE
9,1,1,143,123,2,2,surveys\Slide9.bmp,1249,FALSE
9,1,1,144,124,4,4,surveys\Slide10.bmp,1732,FALSE
9,1,1,145,125,28,ENTER,surveys\Slide11.bmp,9437,TRUE
9,1,1,146,126,3,3,surveys\Slide12.bmp,18280,FALSE
9,1,1,147,127,5,5,surveys\Slide13.bmp,5367,FALSE
9,1,1,148,128,6,6,surveys\Slide14.bmp,6753,FALSE
9,1,1,149,129,2,2,surveys\Slide15.bmp,5278,FALSE
9,1,1,150,130,2,2,surveys\Slide16.bmp,8608,FALSE
9,1,1,151,131,5,5,surveys\Slide17.bmp,6239,FALSE
9,1,1,152,132,4,4,surveys\Slide18.bmp,6724,FALSE
9,1,1,153,133,5,5,surveys\Slide19.bmp,7029,FALSE
9,1,1,154,134,6,6,surveys\Slide20.bmp,6821,FALSE
9,1,1,155,135,4,4,surveys\Slide21.bmp,9554,FALSE
9,1,1,156,136,2,2,surveys\Slide22.bmp,4889,TRUE
9,1,1,157,137,1,1,surveys\Slide23.bmp,5661,TRUE
9,1,1,158,138,1,1,surveys\Slide24.bmp,6788,TRUE
9,1,1,159,139,1,1,surveys\Slide25.bmp,2970,TRUE
9,1,1,160,140,5,5,surveys\Slide26.bmp,5628,FALSE
9,1,1,161,141,2,2,surveys\Slide27.bmp,6461,FALSE
9,1,1,162,142,6,6,surveys\Slide28.bmp,6628,FALSE
9,1,1,163,143,3,3,surveys\Slide29.bmp,8737,FALSE
9,1,1,164,144,3,3,surveys\Slide30.bmp,9408,FALSE
9,1,1,165,145,2,2,surveys\Slide31.bmp,4640,FALSE
9,1,1,166,146,57,SPACE,surveys\Slide32.bmp,2211,TRUE
9,1,1,167,147,-1,20,What is your age (in years)?,4878,TRUE
9,1,1,168,148,3,3,surveys\Slide34.bmp,2832,FALSE
9,1,1,169,149,1,1,surveys\Slide35.bmp,2931,TRUE
9,1,1,170,150,2,2,surveys\Slide36.bmp,2093,FALSE
9,1,1,178,151,57,SPACE,Please see experimenter,756017,TRUE
10,1,1,1,1,57,SPACE,Please wait for instructions,54110,TRUE
10,1,1,2,2,57,SPACE,instructionfollowup\Slide1.bmp,15451,TRUE
10,1,1,3,3,9,9,instructionfollowup\Slide2.bmp,1243,FALSE
10,1,1,3,4,57,SPACE,instructionfollowup\Slide3.bmp,5560,TRUE
10,1,1,4,7,9,9,mfaces\Slide1.bmp,1273,FALSE
10,1,1,5,13,1,1,mfaces\Slide2.bmp,1449,TRUE
10,1,1,6,12,9,9,mfaces\Slide3.bmp,1556,FALSE
10,1,1,7,5,1,1,mfaces\Slide4.bmp,1552,TRUE
10,1,1,8,14,9,9,mfaces\Slide5.bmp,1212,FALSE
10,1,1,9,16,1,1,mfaces\Slide6.bmp,1194,TRUE
10,1,1,10,19,9,9,mfaces\Slide7.bmp,1266,FALSE
10,1,1,11,22,1,1,mfaces\Slide8.bmp,1082,TRUE
10,1,1,12,11,9,9,mfaces\Slide9.bmp,936,FALSE
10,1,1,13,21,1,1,mfaces\Slide10.bmp,971,TRUE
10,1,1,14,10,1,1,mfaces\Slide11.bmp,1240,TRUE
10,1,1,15,6,9,9,mfaces\Slide12.bmp,1308,FALSE
10,1,1,16,9,1,1,mfaces\Slide13.bmp,1751,TRUE
10,1,1,17,8,9,9,mfaces\Slide14.bmp,1617,FALSE
10,1,1,18,20,9,9,mfaces\Slide15.bmp,1024,FALSE
10,1,1,19,24,1,1,mfaces\Slide16.bmp,1307,TRUE
10,1,1,20,23,1,1,mfaces\Slide17.bmp,1229,TRUE
10,1,1,21,15,9,9,mfaces\Slide18.bmp,1356,FALSE
10,1,1,22,17,1,1,mfaces\Slide19.bmp,1218,TRUE
10,1,1,23,18,9,9,mfaces\Slide20.bmp,1205,FALSE
10,1,1,26,25,57,SPACE,instructionfollowup\Slide4.bmp,6588,TRUE
10,1,1,2,50,1,1,instructionfollowup\Slide5.bmp,10604,TRUE
10,1,1,51,57,9,9,mfaces\Slide1.bmp,899,FALSE
10,1,1,52,69,1,1,mfaces\Slide2.bmp,1146,TRUE
10,1,1,53,65,9,9,mfaces\Slide3.bmp,699,FALSE
10,1,1,54,66,1,1,mfaces\Slide4.bmp,1025,TRUE
10,1,1,55,63,9,9,mfaces\Slide5.bmp,1201,FALSE
10,1,1,56,64,1,1,mfaces\Slide6.bmp,904,TRUE
10,1,1,57,67,9,9,mfaces\Slide7.bmp,851,FALSE
10,1,1,58,62,1,1,mfaces\Slide8.bmp,775,TRUE
10,1,1,59,54,9,9,mfaces\Slide9.bmp,875,FALSE
10,1,1,60,60,1,1,mfaces\Slide10.bmp,847,TRUE
10,1,1,61,53,1,1,mfaces\Slide11.bmp,1160,TRUE
10,1,1,62,68,9,9,mfaces\Slide12.bmp,899,FALSE
10,1,1,63,51,1,1,mfaces\Slide13.bmp,1274,TRUE
10,1,1,64,59,9,9,mfaces\Slide14.bmp,1126,FALSE
10,1,1,65,52,1,1,mfaces\Slide15.bmp,1222,TRUE
10,1,1,66,55,9,9,mfaces\Slide16.bmp,1568,FALSE
10,1,1,67,70,1,1,mfaces\Slide17.bmp,1194,TRUE
10,1,1,68,61,9,9,mfaces\Slide18.bmp,874,FALSE
10,1,1,69,58,1,1,mfaces\Slide19.bmp,1132,TRUE
10,1,1,70,56,9,9,mfaces\Slide20.bmp,1194,FALSE
10,1,1,26,71,57,SPACE,instructionfollowup\Slide4.bmp,3569,TRUE
10,1,1,135,96,57,SPACE,instructionfollowup\Slide8.bmp,25774,TRUE
10,1,1,119,99,1,1,Slide32.bmp,1146,TRUE
10,1,1,122,102,9,9,Slide32.bmp,568,FALSE
10,1,1,125,105,1,1,Slide32.bmp,328,TRUE
10,1,1,128,108,9,9,Slide32.bmp,491,FALSE
10,1,1,131,111,1,1,Slide32.bmp,465,TRUE
10,1,1,134,114,5,5,Slide32.bmp,537,FALSE
10,1,1,135,115,57,SPACE,instructionfollowup\Slide9.bmp,3191,TRUE
10,1,1,136,116,1,1,surveys\Slide2.bmp,6268,TRUE
10,1,1,137,117,1,1,surveys\Slide3.bmp,3402,TRUE
10,1,1,138,118,1,1,surveys\Slide4.bmp,1061,TRUE
10,1,1,139,119,1,1,surveys\Slide5.bmp,680,TRUE
10,1,1,140,120,2,2,surveys\Slide6.bmp,6984,FALSE
10,1,1,141,121,2,2,surveys\Slide7.bmp,1731,FALSE
10,1,1,142,122,1,1,surveys\Slide8.bmp,1854,TRUE
10,1,1,143,123,1,1,surveys\Slide9.bmp,1030,TRUE
10,1,1,144,124,4,4,surveys\Slide10.bmp,2507,FALSE
10,1,1,145,125,57,SPACE,surveys\Slide11.bmp,7601,TRUE
10,1,1,146,126,5,5,surveys\Slide12.bmp,21277,FALSE
10,1,1,147,127,2,2,surveys\Slide13.bmp,6521,FALSE
10,1,1,148,128,3,3,surveys\Slide14.bmp,8149,FALSE
10,1,1,149,129,4,4,surveys\Slide15.bmp,10350,FALSE
10,1,1,150,130,3,3,surveys\Slide16.bmp,11634,FALSE
10,1,1,151,131,3,3,surveys\Slide17.bmp,7065,FALSE
10,1,1,152,132,5,5,surveys\Slide18.bmp,10500,FALSE
10,1,1,153,133,3,3,surveys\Slide19.bmp,6006,FALSE
10,1,1,154,134,6,6,surveys\Slide20.bmp,14746,FALSE
10,1,1,155,135,2,2,surveys\Slide21.bmp,9236,FALSE
10,1,1,156,136,57,SPACE,surveys\Slide22.bmp,7766,TRUE
10,1,1,157,137,3,3,surveys\Slide23.bmp,16929,FALSE
10,1,1,158,138,2,2,surveys\Slide24.bmp,22623,FALSE
10,1,1,159,139,1,1,surveys\Slide25.bmp,9577,TRUE
10,1,1,160,140,6,6,surveys\Slide26.bmp,7511,FALSE
10,1,1,161,141,2,2,surveys\Slide27.bmp,7475,FALSE
10,1,1,162,142,3,3,surveys\Slide28.bmp,10932,FALSE
10,1,1,163,143,3,3,surveys\Slide29.bmp,11983,FALSE
10,1,1,164,144,3,3,surveys\Slide30.bmp,12962,FALSE
10,1,1,165,145,1,1,surveys\Slide31.bmp,8720,TRUE
10,1,1,166,146,57,SPACE,surveys\Slide32.bmp,2262,TRUE
10,1,1,167,147,-1,20,What is your age (in years)?,6777,TRUE
10,1,1,168,148,3,3,surveys\Slide34.bmp,4239,FALSE
10,1,1,169,149,1,1,surveys\Slide35.bmp,3569,TRUE
10,1,1,170,150,1,1,surveys\Slide36.bmp,2117,TRUE
10,1,1,178,151,57,SPACE,Please see experimenter,3327057,TRUE
11,1,1,1,1,57,SPACE,Please wait for instructions,59407,TRUE
11,1,1,2,2,57,SPACE,instructionfollowup\Slide1.bmp,8948,TRUE
11,1,1,3,3,9,9,instructionfollowup\Slide2.bmp,152,FALSE
11,1,1,3,4,57,SPACE,instructionfollowup\Slide3.bmp,8561,TRUE
11,1,1,4,18,9,9,mfaces\Slide1.bmp,1157,FALSE
11,1,1,5,10,9,9,mfaces\Slide2.bmp,1289,FALSE
11,1,1,6,22,9,9,mfaces\Slide3.bmp,851,FALSE
11,1,1,7,12,1,1,mfaces\Slide4.bmp,1305,TRUE
11,1,1,8,17,9,9,mfaces\Slide5.bmp,1039,FALSE
11,1,1,9,23,1,1,mfaces\Slide6.bmp,1067,TRUE
11,1,1,10,19,9,9,mfaces\Slide7.bmp,794,FALSE
11,1,1,11,20,1,1,mfaces\Slide8.bmp,879,TRUE
11,1,1,12,6,9,9,mfaces\Slide9.bmp,1044,FALSE
11,1,1,13,8,1,1,mfaces\Slide10.bmp,1007,TRUE
11,1,1,14,7,1,1,mfaces\Slide11.bmp,1108,TRUE
11,1,1,15,13,9,9,mfaces\Slide12.bmp,905,FALSE
11,1,1,16,11,1,1,mfaces\Slide13.bmp,1049,TRUE
11,1,1,17,9,9,9,mfaces\Slide14.bmp,1022,FALSE
11,1,1,18,14,1,1,mfaces\Slide15.bmp,996,TRUE
11,1,1,19,16,9,9,mfaces\Slide16.bmp,1019,FALSE
11,1,1,20,15,1,1,mfaces\Slide17.bmp,977,TRUE
11,1,1,21,5,1,1,mfaces\Slide18.bmp,1444,TRUE
11,1,1,22,21,1,1,mfaces\Slide19.bmp,818,TRUE
11,1,1,23,24,9,9,mfaces\Slide20.bmp,966,FALSE
11,1,1,26,25,57,SPACE,instructionfollowup\Slide4.bmp,5067,TRUE
11,1,1,2,50,57,SPACE,instructionfollowup\Slide5.bmp,14502,TRUE
11,1,1,51,68,9,9,mfaces\Slide1.bmp,847,FALSE
11,1,1,52,53,1,1,mfaces\Slide2.bmp,1001,TRUE
11,1,1,53,56,9,9,mfaces\Slide3.bmp,1055,FALSE
11,1,1,54,70,1,1,mfaces\Slide4.bmp,842,TRUE
11,1,1,55,62,9,9,mfaces\Slide5.bmp,795,FALSE
11,1,1,56,61,1,1,mfaces\Slide6.bmp,1069,TRUE
11,1,1,57,58,9,9,mfaces\Slide7.bmp,772,FALSE
11,1,1,58,64,1,1,mfaces\Slide8.bmp,804,TRUE
11,1,1,59,60,9,9,mfaces\Slide9.bmp,827,FALSE
11,1,1,60,65,1,1,mfaces\Slide10.bmp,835,TRUE
11,1,1,61,55,1,1,mfaces\Slide11.bmp,882,TRUE
11,1,1,62,69,9,9,mfaces\Slide12.bmp,823,FALSE
11,1,1,63,67,1,1,mfaces\Slide13.bmp,787,TRUE
11,1,1,64,59,9,9,mfaces\Slide14.bmp,1069,FALSE
11,1,1,65,66,1,1,mfaces\Slide15.bmp,896,TRUE
11,1,1,66,57,9,9,mfaces\Slide16.bmp,950,FALSE
11,1,1,67,51,1,1,mfaces\Slide17.bmp,974,TRUE
11,1,1,68,54,9,9,mfaces\Slide18.bmp,1159,FALSE
11,1,1,69,52,1,1,mfaces\Slide19.bmp,863,TRUE
11,1,1,70,63,9,9,mfaces\Slide20.bmp,944,FALSE
11,1,1,26,71,57,SPACE,instructionfollowup\Slide4.bmp,4518,TRUE
11,1,1,135,96,57,SPACE,instructionfollowup\Slide8.bmp,53742,TRUE
11,1,1,119,99,5,5,Slide32.bmp,1174,FALSE
11,1,1,122,102,7,7,Slide32.bmp,1613,FALSE
11,1,1,125,105,2,2,Slide32.bmp,1332,FALSE
11,1,1,128,108,8,8,Slide32.bmp,508,FALSE
11,1,1,131,111,1,1,Slide32.bmp,1006,TRUE
11,1,1,134,114,4,4,Slide32.bmp,621,FALSE
11,1,1,135,115,57,SPACE,instructionfollowup\Slide9.bmp,3954,TRUE
11,1,1,136,116,57,SPACE,surveys\Slide2.bmp,17560,TRUE
11,1,1,137,117,1,1,surveys\Slide3.bmp,2253,TRUE
11,1,1,138,118,1,1,surveys\Slide4.bmp,1984,TRUE
11,1,1,139,119,1,1,surveys\Slide5.bmp,1351,TRUE
11,1,1,140,120,1,1,surveys\Slide6.bmp,2025,TRUE
11,1,1,141,121,2,2,surveys\Slide7.bmp,2161,FALSE
11,1,1,142,122,2,2,surveys\Slide8.bmp,2007,FALSE
11,1,1,143,123,1,1,surveys\Slide9.bmp,2363,TRUE
11,1,1,144,124,4,4,surveys\Slide10.bmp,1804,FALSE
11,1,1,145,125,57,SPACE,surveys\Slide11.bmp,16040,TRUE
11,1,1,146,126,2,2,surveys\Slide12.bmp,18109,FALSE
11,1,1,147,127,3,3,surveys\Slide13.bmp,10038,FALSE
11,1,1,148,128,5,5,surveys\Slide14.bmp,8124,FALSE
11,1,1,149,129,2,2,surveys\Slide15.bmp,8549,FALSE
11,1,1,150,130,1,1,surveys\Slide16.bmp,6988,TRUE
11,1,1,151,131,1,1,surveys\Slide17.bmp,9077,TRUE
11,1,1,152,132,2,2,surveys\Slide18.bmp,7587,FALSE
11,1,1,153,133,5,5,surveys\Slide19.bmp,9746,FALSE
11,1,1,154,134,4,4,surveys\Slide20.bmp,13232,FALSE
11,1,1,155,135,7,7,surveys\Slide21.bmp,18825,FALSE
11,1,1,156,136,57,SPACE,surveys\Slide22.bmp,21120,TRUE
11,1,1,157,137,2,2,surveys\Slide23.bmp,5966,FALSE
11,1,1,158,138,1,1,surveys\Slide24.bmp,12434,TRUE
11,1,1,159,139,2,2,surveys\Slide25.bmp,9581,FALSE
11,1,1,160,140,1,1,surveys\Slide26.bmp,6621,TRUE
11,1,1,161,141,1,1,surveys\Slide27.bmp,4596,TRUE
11,1,1,162,142,6,6,surveys\Slide28.bmp,11959,FALSE
11,1,1,163,143,2,2,surveys\Slide29.bmp,14401,FALSE
11,1,1,164,144,3,3,surveys\Slide30.bmp,11839,FALSE
11,1,1,165,145,2,2,surveys\Slide31.bmp,6362,FALSE
11,1,1,166,146,57,SPACE,surveys\Slide32.bmp,4460,TRUE
11,1,1,167,147,-1,18,What is your age (in years)?,3895,TRUE
11,1,1,168,148,1,1,surveys\Slide34.bmp,3356,TRUE
11,1,1,169,149,2,2,surveys\Slide35.bmp,1980,FALSE
11,1,1,170,150,1,1,surveys\Slide36.bmp,1834,TRUE
11,1,1,178,151,57,SPACE,Please see experimenter,600953,TRUE
12,1,1,1,1,57,SPACE,Please wait for instructions,92620,TRUE
12,1,1,2,2,57,SPACE,instructionfollowup\Slide1.bmp,12789,TRUE
12,1,1,3,3,9,9,instructionfollowup\Slide2.bmp,1638,FALSE
12,1,1,3,4,57,SPACE,instructionfollowup\Slide3.bmp,3545,TRUE
12,1,1,4,14,1,1,mfaces\Slide1.bmp,1653,TRUE
12,1,1,5,5,-1,-1,mfaces\Slide2.bmp,2001,FALSE
12,1,1,6,9,1,1,mfaces\Slide3.bmp,1571,TRUE
12,1,1,7,17,1,1,mfaces\Slide4.bmp,1914,TRUE
12,1,1,8,8,9,9,mfaces\Slide5.bmp,1606,FALSE
12,1,1,9,10,1,1,mfaces\Slide6.bmp,1473,TRUE
12,1,1,10,18,9,9,mfaces\Slide7.bmp,1045,FALSE
12,1,1,11,6,9,9,mfaces\Slide8.bmp,1392,FALSE
12,1,1,12,22,-1,-1,mfaces\Slide9.bmp,2001,FALSE
12,1,1,13,7,1,1,mfaces\Slide10.bmp,1264,TRUE
12,1,1,14,21,-1,-1,mfaces\Slide11.bmp,2001,FALSE
12,1,1,15,24,9,9,mfaces\Slide12.bmp,979,FALSE
12,1,1,16,23,1,1,mfaces\Slide13.bmp,1426,TRUE
12,1,1,17,16,9,9,mfaces\Slide14.bmp,1660,FALSE
12,1,1,18,11,1,1,mfaces\Slide15.bmp,1700,TRUE
12,1,1,19,19,9,9,mfaces\Slide16.bmp,841,FALSE
12,1,1,20,15,9,9,mfaces\Slide17.bmp,1092,FALSE
12,1,1,21,12,9,9,mfaces\Slide18.bmp,1586,FALSE
12,1,1,22,20,9,9,mfaces\Slide19.bmp,982,FALSE
12,1,1,23,13,9,9,mfaces\Slide20.bmp,1380,FALSE
12,1,1,26,25,57,SPACE,instructionfollowup\Slide4.bmp,3411,TRUE
12,1,1,2,50,36,J,instructionfollowup\Slide5.bmp,5584,TRUE
12,1,1,51,64,1,1,mfaces\Slide1.bmp,1311,TRUE
12,1,1,52,52,9,9,mfaces\Slide2.bmp,1004,FALSE
12,1,1,53,56,9,9,mfaces\Slide3.bmp,643,FALSE
12,1,1,54,57,9,9,mfaces\Slide4.bmp,752,FALSE
12,1,1,55,69,9,9,mfaces\Slide5.bmp,894,FALSE
12,1,1,56,67,1,1,mfaces\Slide6.bmp,1663,TRUE
12,1,1,57,59,9,9,mfaces\Slide7.bmp,839,FALSE
12,1,1,58,66,9,9,mfaces\Slide8.bmp,1032,FALSE
12,1,1,59,54,9,9,mfaces\Slide9.bmp,790,FALSE
12,1,1,60,62,9,9,mfaces\Slide10.bmp,658,FALSE
12,1,1,61,58,1,1,mfaces\Slide11.bmp,1096,TRUE
12,1,1,62,65,9,9,mfaces\Slide12.bmp,936,FALSE
12,1,1,63,55,9,9,mfaces\Slide13.bmp,658,FALSE
12,1,1,64,61,9,9,mfaces\Slide14.bmp,790,FALSE
12,1,1,65,70,1,1,mfaces\Slide15.bmp,1074,TRUE
12,1,1,66,53,9,9,mfaces\Slide16.bmp,803,FALSE
12,1,1,67,63,9,9,mfaces\Slide17.bmp,1077,FALSE
12,1,1,68,60,9,9,mfaces\Slide18.bmp,808,FALSE
12,1,1,69,51,9,9,mfaces\Slide19.bmp,1895,FALSE
12,1,1,70,68,9,9,mfaces\Slide20.bmp,1800,FALSE
12,1,1,26,71,9,9,instructionfollowup\Slide4.bmp,1474,TRUE
12,1,1,135,96,57,SPACE,instructionfollowup\Slide8.bmp,9682,TRUE
12,1,1,119,99,1,1,Slide32.bmp,1651,TRUE
12,1,1,122,102,9,9,Slide32.bmp,1317,FALSE
12,1,1,125,105,1,1,Slide32.bmp,307,TRUE
12,1,1,128,108,6,6,Slide32.bmp,271,FALSE
12,1,1,131,111,7,7,Slide32.bmp,23,FALSE
12,1,1,134,114,7,7,Slide32.bmp,1257,FALSE
12,1,1,135,115,57,SPACE,instructionfollowup\Slide9.bmp,1769,TRUE
12,1,1,136,116,1,1,surveys\Slide2.bmp,4438,TRUE
12,1,1,137,117,1,1,surveys\Slide3.bmp,1523,TRUE
12,1,1,138,118,1,1,surveys\Slide4.bmp,1072,TRUE
12,1,1,139,119,1,1,surveys\Slide5.bmp,1080,TRUE
12,1,1,140,120,1,1,surveys\Slide6.bmp,890,TRUE
12,1,1,141,121,1,1,surveys\Slide7.bmp,766,TRUE
12,1,1,142,122,1,1,surveys\Slide8.bmp,982,TRUE
12,1,1,143,123,1,1,surveys\Slide9.bmp,609,TRUE
12,1,1,144,124,1,1,surveys\Slide10.bmp,669,TRUE
12,1,1,145,125,1,1,surveys\Slide11.bmp,3039,TRUE
12,1,1,146,126,4,4,surveys\Slide12.bmp,10909,FALSE
12,1,1,147,127,5,5,surveys\Slide13.bmp,5379,FALSE
12,1,1,148,128,7,7,surveys\Slide14.bmp,5473,FALSE
12,1,1,149,129,4,4,surveys\Slide15.bmp,6565,FALSE
12,1,1,150,130,2,2,surveys\Slide16.bmp,6172,FALSE
12,1,1,151,131,1,1,surveys\Slide17.bmp,7385,TRUE
12,1,1,152,132,2,2,surveys\Slide18.bmp,6567,FALSE
12,1,1,153,133,2,2,surveys\Slide19.bmp,2641,FALSE
12,1,1,154,134,3,3,surveys\Slide20.bmp,4410,FALSE
12,1,1,155,135,4,4,surveys\Slide21.bmp,10751,FALSE
12,1,1,156,136,4,4,surveys\Slide22.bmp,4384,TRUE
12,1,1,157,137,2,2,surveys\Slide23.bmp,5311,FALSE
12,1,1,158,138,8,8,surveys\Slide24.bmp,5976,FALSE
12,1,1,159,139,4,4,surveys\Slide25.bmp,8323,FALSE
12,1,1,160,140,7,7,surveys\Slide26.bmp,3811,FALSE
12,1,1,161,141,7,7,surveys\Slide27.bmp,3946,FALSE
12,1,1,162,142,3,3,surveys\Slide28.bmp,4737,FALSE
12,1,1,163,143,9,9,surveys\Slide29.bmp,5656,FALSE
12,1,1,164,144,7,7,surveys\Slide30.bmp,6809,FALSE
12,1,1,165,145,5,5,surveys\Slide31.bmp,5720,FALSE
12,1,1,166,146,36,J,surveys\Slide32.bmp,1707,TRUE
12,1,1,167,147,-1,19,What is your age (in years)?,3054,TRUE
12,1,1,168,148,2,2,surveys\Slide34.bmp,2670,FALSE
12,1,1,169,149,1,1,surveys\Slide35.bmp,1882,TRUE
12,1,1,170,150,1,1,surveys\Slide36.bmp,1493,TRUE
12,1,1,178,151,57,SPACE,Please see experimenter,1931753,TRUE
13,1,1,1,1,57,SPACE,Please wait for instructions,108820,TRUE
13,1,1,2,2,57,SPACE,instructionfollowup\Slide1.bmp,13092,TRUE
13,1,1,3,3,1,1,instructionfollowup\Slide2.bmp,136,TRUE
13,1,1,3,4,57,SPACE,instructionfollowup\Slide3.bmp,2148,TRUE
13,1,1,4,10,9,9,mfaces\Slide1.bmp,1045,FALSE
13,1,1,5,23,9,9,mfaces\Slide2.bmp,1144,FALSE
13,1,1,6,15,1,1,mfaces\Slide3.bmp,773,TRUE
13,1,1,7,21,1,1,mfaces\Slide4.bmp,880,TRUE
13,1,1,8,6,9,9,mfaces\Slide5.bmp,1064,FALSE
13,1,1,9,9,1,1,mfaces\Slide6.bmp,1249,TRUE
13,1,1,10,5,9,9,mfaces\Slide7.bmp,878,FALSE
13,1,1,11,14,1,1,mfaces\Slide8.bmp,918,TRUE
13,1,1,12,8,9,9,mfaces\Slide9.bmp,1215,FALSE
13,1,1,13,16,1,1,mfaces\Slide10.bmp,1075,TRUE
13,1,1,14,24,1,1,mfaces\Slide11.bmp,1165,TRUE
13,1,1,15,13,1,1,mfaces\Slide12.bmp,851,TRUE
13,1,1,16,17,1,1,mfaces\Slide13.bmp,810,TRUE
13,1,1,17,12,-1,-1,mfaces\Slide14.bmp,2001,FALSE
13,1,1,18,18,1,1,mfaces\Slide15.bmp,849,TRUE
13,1,1,19,7,1,1,mfaces\Slide16.bmp,1520,TRUE
13,1,1,20,20,9,9,mfaces\Slide17.bmp,755,FALSE
13,1,1,21,19,9,9,mfaces\Slide18.bmp,795,FALSE
13,1,1,22,22,1,1,mfaces\Slide19.bmp,827,TRUE
13,1,1,23,11,1,1,mfaces\Slide20.bmp,1278,TRUE
13,1,1,26,25,57,SPACE,instructionfollowup\Slide4.bmp,2436,TRUE
13,1,1,2,50,57,SPACE,instructionfollowup\Slide5.bmp,4194,TRUE
13,1,1,51,63,9,9,mfaces\Slide1.bmp,853,FALSE
13,1,1,52,57,1,1,mfaces\Slide2.bmp,876,TRUE
13,1,1,53,55,1,1,mfaces\Slide3.bmp,1053,TRUE
13,1,1,54,60,1,1,mfaces\Slide4.bmp,1037,TRUE
13,1,1,55,70,9,9,mfaces\Slide5.bmp,864,FALSE
13,1,1,56,67,1,1,mfaces\Slide6.bmp,1035,TRUE
13,1,1,57,58,9,9,mfaces\Slide7.bmp,1024,FALSE
13,1,1,58,64,1,1,mfaces\Slide8.bmp,762,TRUE
13,1,1,59,69,9,9,mfaces\Slide9.bmp,928,FALSE
13,1,1,60,62,1,1,mfaces\Slide10.bmp,977,TRUE
13,1,1,61,66,1,1,mfaces\Slide11.bmp,1075,TRUE
13,1,1,62,59,9,9,mfaces\Slide12.bmp,1069,FALSE
13,1,1,63,53,1,1,mfaces\Slide13.bmp,845,TRUE
13,1,1,64,68,1,1,mfaces\Slide14.bmp,1024,TRUE
13,1,1,65,54,1,1,mfaces\Slide15.bmp,955,TRUE
13,1,1,66,61,9,9,mfaces\Slide16.bmp,1124,FALSE
13,1,1,67,56,1,1,mfaces\Slide17.bmp,1144,TRUE
13,1,1,68,51,9,9,mfaces\Slide18.bmp,805,FALSE
13,1,1,69,65,1,1,mfaces\Slide19.bmp,881,TRUE
13,1,1,70,52,1,1,mfaces\Slide20.bmp,1481,TRUE
13,1,1,26,71,57,SPACE,instructionfollowup\Slide4.bmp,1941,TRUE
13,1,1,135,96,57,SPACE,instructionfollowup\Slide8.bmp,18219,TRUE
13,1,1,119,99,1,1,Slide32.bmp,4160,TRUE
13,1,1,122,102,9,9,Slide32.bmp,695,FALSE
13,1,1,125,105,3,3,Slide32.bmp,1905,FALSE
13,1,1,128,108,9,9,Slide32.bmp,482,FALSE
13,1,1,131,111,1,1,Slide32.bmp,536,TRUE
13,1,1,134,114,4,4,Slide32.bmp,488,FALSE
13,1,1,135,115,57,SPACE,instructionfollowup\Slide9.bmp,1820,TRUE
13,1,1,136,116,3,3,surveys\Slide2.bmp,9070,TRUE
13,1,1,137,117,1,1,surveys\Slide3.bmp,1371,TRUE
13,1,1,138,118,1,1,surveys\Slide4.bmp,1187,TRUE
13,1,1,139,119,1,1,surveys\Slide5.bmp,682,TRUE
13,1,1,140,120,3,3,surveys\Slide6.bmp,1964,FALSE
13,1,1,141,121,3,3,surveys\Slide7.bmp,1526,FALSE
13,1,1,142,122,3,3,surveys\Slide8.bmp,997,FALSE
13,1,1,143,123,1,1,surveys\Slide9.bmp,1015,TRUE
13,1,1,144,124,5,5,surveys\Slide10.bmp,1935,FALSE
13,1,1,145,125,57,SPACE,surveys\Slide11.bmp,3518,TRUE
13,1,1,146,126,5,5,surveys\Slide12.bmp,12257,FALSE
13,1,1,147,127,5,5,surveys\Slide13.bmp,5031,FALSE
13,1,1,148,128,6,6,surveys\Slide14.bmp,4954,FALSE
13,1,1,149,129,2,2,surveys\Slide15.bmp,6008,FALSE
13,1,1,150,130,2,2,surveys\Slide16.bmp,5503,FALSE
13,1,1,151,131,5,5,surveys\Slide17.bmp,7688,FALSE
13,1,1,152,132,4,4,surveys\Slide18.bmp,6311,FALSE
13,1,1,153,133,6,6,surveys\Slide19.bmp,6274,FALSE
13,1,1,154,134,4,4,surveys\Slide20.bmp,4884,FALSE
13,1,1,155,135,4,4,surveys\Slide21.bmp,9472,FALSE
13,1,1,156,136,57,SPACE,surveys\Slide22.bmp,7178,TRUE
13,1,1,157,137,3,3,surveys\Slide23.bmp,6364,FALSE
13,1,1,158,138,1,1,surveys\Slide24.bmp,21145,TRUE
13,1,1,159,139,2,2,surveys\Slide25.bmp,6383,FALSE
13,1,1,160,140,5,5,surveys\Slide26.bmp,10253,FALSE
13,1,1,161,141,5,5,surveys\Slide27.bmp,6963,FALSE
13,1,1,162,142,4,4,surveys\Slide28.bmp,6265,FALSE
13,1,1,163,143,3,3,surveys\Slide29.bmp,7899,FALSE
13,1,1,164,144,3,3,surveys\Slide30.bmp,5588,FALSE
13,1,1,165,145,3,3,surveys\Slide31.bmp,6138,FALSE
13,1,1,166,146,57,SPACE,surveys\Slide32.bmp,1984,TRUE
13,1,1,167,147,-1,18,What is your age (in years)?,5233,TRUE
13,1,1,168,148,1,1,surveys\Slide34.bmp,2026,TRUE
13,1,1,169,149,3,3,surveys\Slide35.bmp,3525,FALSE
13,1,1,170,150,2,2,surveys\Slide36.bmp,2616,FALSE
13,1,1,178,151,57,SPACE,Please see experimenter,1894248,TRUE
14,1,1,1,1,57,SPACE,Please wait for instructions,114303,TRUE
14,1,1,2,2,57,SPACE,instructionfollowup\Slide1.bmp,9349,TRUE
14,1,1,3,3,9,9,instructionfollowup\Slide2.bmp,1388,FALSE
14,1,1,3,4,57,SPACE,instructionfollowup\Slide3.bmp,4539,TRUE
14,1,1,4,17,9,9,mfaces\Slide1.bmp,890,FALSE
14,1,1,5,12,1,1,mfaces\Slide2.bmp,1050,TRUE
14,1,1,6,7,9,9,mfaces\Slide3.bmp,1062,FALSE
14,1,1,7,18,1,1,mfaces\Slide4.bmp,1000,TRUE
14,1,1,8,24,9,9,mfaces\Slide5.bmp,766,FALSE
14,1,1,9,23,1,1,mfaces\Slide6.bmp,805,TRUE
14,1,1,10,8,9,9,mfaces\Slide7.bmp,1013,FALSE
14,1,1,11,6,1,1,mfaces\Slide8.bmp,1079,TRUE
14,1,1,12,5,1,1,mfaces\Slide9.bmp,806,TRUE
14,1,1,13,20,1,1,mfaces\Slide10.bmp,678,TRUE
14,1,1,14,10,1,1,mfaces\Slide11.bmp,1148,TRUE
14,1,1,15,15,9,9,mfaces\Slide12.bmp,882,FALSE
14,1,1,16,22,1,1,mfaces\Slide13.bmp,948,TRUE
14,1,1,17,14,9,9,mfaces\Slide14.bmp,860,FALSE
14,1,1,18,13,1,1,mfaces\Slide15.bmp,845,TRUE
14,1,1,19,19,9,9,mfaces\Slide16.bmp,964,FALSE
14,1,1,20,9,1,1,mfaces\Slide17.bmp,1021,TRUE
14,1,1,21,21,9,9,mfaces\Slide18.bmp,797,FALSE
14,1,1,22,11,9,9,mfaces\Slide19.bmp,1013,FALSE
14,1,1,23,16,9,9,mfaces\Slide20.bmp,1143,FALSE
14,1,1,26,25,57,SPACE,instructionfollowup\Slide4.bmp,4423,TRUE
14,1,1,2,50,57,SPACE,instructionfollowup\Slide5.bmp,7112,TRUE
14,1,1,51,66,9,9,mfaces\Slide1.bmp,847,FALSE
14,1,1,52,51,1,1,mfaces\Slide2.bmp,1054,TRUE
14,1,1,53,65,9,9,mfaces\Slide3.bmp,784,FALSE
14,1,1,54,53,1,1,mfaces\Slide4.bmp,690,TRUE
14,1,1,55,68,9,9,mfaces\Slide5.bmp,747,FALSE
14,1,1,56,60,1,1,mfaces\Slide6.bmp,820,TRUE
14,1,1,57,58,9,9,mfaces\Slide7.bmp,856,FALSE
14,1,1,58,54,1,1,mfaces\Slide8.bmp,1143,TRUE
14,1,1,59,64,9,9,mfaces\Slide9.bmp,761,FALSE
14,1,1,60,70,1,1,mfaces\Slide10.bmp,740,TRUE
14,1,1,61,56,1,1,mfaces\Slide11.bmp,1096,TRUE
14,1,1,62,63,9,9,mfaces\Slide12.bmp,975,FALSE
14,1,1,63,67,1,1,mfaces\Slide13.bmp,772,TRUE
14,1,1,64,62,9,9,mfaces\Slide14.bmp,841,FALSE
14,1,1,65,61,1,1,mfaces\Slide15.bmp,810,TRUE
14,1,1,66,57,9,9,mfaces\Slide16.bmp,1334,FALSE
14,1,1,67,69,1,1,mfaces\Slide17.bmp,917,TRUE
14,1,1,68,52,9,9,mfaces\Slide18.bmp,930,FALSE
14,1,1,69,59,1,1,mfaces\Slide19.bmp,1335,TRUE
14,1,1,70,55,1,1,mfaces\Slide20.bmp,687,TRUE
14,1,1,26,71,57,SPACE,instructionfollowup\Slide4.bmp,2112,TRUE
14,1,1,135,96,57,SPACE,instructionfollowup\Slide8.bmp,16536,TRUE
14,1,1,119,99,1,1,Slide32.bmp,917,TRUE
14,1,1,122,102,9,9,Slide32.bmp,435,FALSE
14,1,1,125,105,1,1,Slide32.bmp,573,TRUE
14,1,1,128,108,9,9,Slide32.bmp,451,FALSE
14,1,1,131,111,1,1,Slide32.bmp,502,TRUE
14,1,1,134,114,1,1,Slide32.bmp,336,TRUE
14,1,1,135,115,57,SPACE,instructionfollowup\Slide9.bmp,1439,TRUE
14,1,1,136,116,57,SPACE,surveys\Slide2.bmp,7411,TRUE
14,1,1,137,117,1,1,surveys\Slide3.bmp,1303,TRUE
14,1,1,138,118,1,1,surveys\Slide4.bmp,631,TRUE
14,1,1,139,119,1,1,surveys\Slide5.bmp,450,TRUE
14,1,1,140,120,1,1,surveys\Slide6.bmp,747,TRUE
14,1,1,141,121,1,1,surveys\Slide7.bmp,540,TRUE
14,1,1,142,122,5,5,surveys\Slide8.bmp,1661,FALSE
14,1,1,143,123,1,1,surveys\Slide9.bmp,1293,TRUE
14,1,1,144,124,3,3,surveys\Slide10.bmp,1245,FALSE
14,1,1,145,125,57,SPACE,surveys\Slide11.bmp,4770,TRUE
14,1,1,146,126,6,6,surveys\Slide12.bmp,11088,FALSE
14,1,1,147,127,4,4,surveys\Slide13.bmp,4605,FALSE
14,1,1,148,128,6,6,surveys\Slide14.bmp,4374,FALSE
14,1,1,149,129,6,6,surveys\Slide15.bmp,4367,FALSE
14,1,1,150,130,2,2,surveys\Slide16.bmp,5125,FALSE
14,1,1,151,131,4,4,surveys\Slide17.bmp,15535,FALSE
14,1,1,152,132,4,4,surveys\Slide18.bmp,6679,FALSE
14,1,1,153,133,4,4,surveys\Slide19.bmp,6453,FALSE
14,1,1,154,134,5,5,surveys\Slide20.bmp,6460,FALSE
14,1,1,155,135,4,4,surveys\Slide21.bmp,8733,FALSE
14,1,1,156,136,57,SPACE,surveys\Slide22.bmp,9954,TRUE
14,1,1,157,137,2,2,surveys\Slide23.bmp,8590,FALSE
14,1,1,158,138,1,1,surveys\Slide24.bmp,7247,TRUE
14,1,1,159,139,1,1,surveys\Slide25.bmp,5549,TRUE
14,1,1,160,140,5,5,surveys\Slide26.bmp,6404,FALSE
14,1,1,161,141,2,2,surveys\Slide27.bmp,6538,FALSE
14,1,1,162,142,5,5,surveys\Slide28.bmp,9400,FALSE
14,1,1,163,143,2,2,surveys\Slide29.bmp,6209,FALSE
14,1,1,164,144,1,1,surveys\Slide30.bmp,4501,TRUE
14,1,1,165,145,1,1,surveys\Slide31.bmp,3507,TRUE
14,1,1,166,146,57,SPACE,surveys\Slide32.bmp,2128,TRUE
14,1,1,167,147,-1,18,What is your age (in years)?,2493,TRUE
14,1,1,168,148,1,1,surveys\Slide34.bmp,1839,TRUE
14,1,1,169,149,1,1,surveys\Slide35.bmp,1484,TRUE
14,1,1,170,150,1,1,surveys\Slide36.bmp,1277,TRUE
14,1,1,178,151,57,SPACE,Please see experimenter,1866013,TRUE
15,1,1,1,1,57,SPACE,Please wait for instructions,101161,TRUE
15,1,1,2,2,29,LCONTROL,instructionfollowup\Slide1.bmp,17113,TRUE
15,1,1,3,3,9,9,instructionfollowup\Slide2.bmp,1019,FALSE
15,1,1,3,4,57,SPACE,instructionfollowup\Slide3.bmp,3457,TRUE
15,1,1,4,15,9,9,mfaces\Slide1.bmp,1110,FALSE
15,1,1,5,11,1,1,mfaces\Slide2.bmp,1207,TRUE
15,1,1,6,23,9,9,mfaces\Slide3.bmp,1077,FALSE
15,1,1,7,20,9,9,mfaces\Slide4.bmp,905,FALSE
15,1,1,8,14,9,9,mfaces\Slide5.bmp,921,FALSE
15,1,1,9,8,1,1,mfaces\Slide6.bmp,1212,TRUE
15,1,1,10,7,9,9,mfaces\Slide7.bmp,1786,FALSE
15,1,1,11,17,9,9,mfaces\Slide8.bmp,993,FALSE
15,1,1,12,22,9,9,mfaces\Slide9.bmp,958,FALSE
15,1,1,13,10,1,1,mfaces\Slide10.bmp,1167,TRUE
15,1,1,14,9,1,1,mfaces\Slide11.bmp,868,TRUE
15,1,1,15,5,9,9,mfaces\Slide12.bmp,1508,FALSE
15,1,1,16,19,9,9,mfaces\Slide13.bmp,1462,FALSE
15,1,1,17,21,9,9,mfaces\Slide14.bmp,987,FALSE
15,1,1,18,16,1,1,mfaces\Slide15.bmp,1049,TRUE
15,1,1,19,12,1,1,mfaces\Slide16.bmp,1038,TRUE
15,1,1,20,18,1,1,mfaces\Slide17.bmp,1055,TRUE
15,1,1,21,24,1,1,mfaces\Slide18.bmp,960,TRUE
15,1,1,22,13,1,1,mfaces\Slide19.bmp,1237,TRUE
15,1,1,23,6,-1,-1,mfaces\Slide20.bmp,2001,FALSE
15,1,1,26,25,57,SPACE,instructionfollowup\Slide4.bmp,3195,TRUE
15,1,1,2,50,57,SPACE,instructionfollowup\Slide5.bmp,5242,TRUE
15,1,1,51,65,9,9,mfaces\Slide1.bmp,1558,FALSE
15,1,1,52,54,9,9,mfaces\Slide2.bmp,951,FALSE
15,1,1,53,56,9,9,mfaces\Slide3.bmp,1062,FALSE
15,1,1,54,64,1,1,mfaces\Slide4.bmp,1307,TRUE
15,1,1,55,57,9,9,mfaces\Slide5.bmp,896,FALSE
15,1,1,56,51,1,1,mfaces\Slide6.bmp,1145,TRUE
15,1,1,57,67,9,9,mfaces\Slide7.bmp,1561,FALSE
15,1,1,58,66,1,1,mfaces\Slide8.bmp,1543,TRUE
15,1,1,59,61,9,9,mfaces\Slide9.bmp,893,FALSE
15,1,1,60,69,1,1,mfaces\Slide10.bmp,1474,TRUE
15,1,1,61,52,9,9,mfaces\Slide11.bmp,1525,FALSE
15,1,1,62,62,9,9,mfaces\Slide12.bmp,1102,FALSE
15,1,1,63,55,1,1,mfaces\Slide13.bmp,1712,TRUE
15,1,1,64,58,1,1,mfaces\Slide14.bmp,1283,TRUE
15,1,1,65,60,1,1,mfaces\Slide15.bmp,1253,TRUE
15,1,1,66,53,1,1,mfaces\Slide16.bmp,1460,TRUE
15,1,1,67,59,1,1,mfaces\Slide17.bmp,1379,TRUE
15,1,1,68,68,9,9,mfaces\Slide18.bmp,1319,FALSE
15,1,1,69,63,1,1,mfaces\Slide19.bmp,989,TRUE
15,1,1,70,70,9,9,mfaces\Slide20.bmp,1248,FALSE
15,1,1,26,71,57,SPACE,instructionfollowup\Slide4.bmp,3036,TRUE
15,1,1,135,96,57,SPACE,instructionfollowup\Slide8.bmp,15680,TRUE
15,1,1,119,99,1,1,Slide32.bmp,1217,TRUE
15,1,1,122,102,9,9,Slide32.bmp,618,FALSE
15,1,1,125,105,5,5,Slide32.bmp,638,FALSE
15,1,1,128,108,9,9,Slide32.bmp,242,FALSE
15,1,1,131,111,1,1,Slide32.bmp,756,TRUE
15,1,1,134,114,1,1,Slide32.bmp,352,TRUE
15,1,1,135,115,57,SPACE,instructionfollowup\Slide9.bmp,1203,TRUE
15,1,1,136,116,57,SPACE,surveys\Slide2.bmp,8854,TRUE
15,1,1,137,117,1,1,surveys\Slide3.bmp,3147,TRUE
15,1,1,138,118,1,1,surveys\Slide4.bmp,1360,TRUE
15,1,1,139,119,1,1,surveys\Slide5.bmp,563,TRUE
15,1,1,140,120,1,1,surveys\Slide6.bmp,1911,TRUE
15,1,1,141,121,1,1,surveys\Slide7.bmp,1332,TRUE
15,1,1,142,122,1,1,surveys\Slide8.bmp,1385,TRUE
15,1,1,143,123,2,2,surveys\Slide9.bmp,1823,FALSE
15,1,1,144,124,2,2,surveys\Slide10.bmp,1262,FALSE
15,1,1,145,125,57,SPACE,surveys\Slide11.bmp,3253,TRUE
15,1,1,146,126,6,6,surveys\Slide12.bmp,8656,FALSE
15,1,1,147,127,4,4,surveys\Slide13.bmp,5683,FALSE
15,1,1,148,128,4,4,surveys\Slide14.bmp,9399,FALSE
15,1,1,149,129,6,6,surveys\Slide15.bmp,4185,FALSE
15,1,1,150,130,5,5,surveys\Slide16.bmp,4118,FALSE
15,1,1,151,131,5,5,surveys\Slide17.bmp,4692,FALSE
15,1,1,152,132,5,5,surveys\Slide18.bmp,4709,FALSE
15,1,1,153,133,5,5,surveys\Slide19.bmp,3694,FALSE
15,1,1,154,134,4,4,surveys\Slide20.bmp,8168,FALSE
15,1,1,155,135,3,3,surveys\Slide21.bmp,5065,FALSE
15,1,1,156,136,57,SPACE,surveys\Slide22.bmp,5860,TRUE
15,1,1,157,137,2,2,surveys\Slide23.bmp,8044,FALSE
15,1,1,158,138,1,1,surveys\Slide24.bmp,5118,TRUE
15,1,1,159,139,1,1,surveys\Slide25.bmp,5201,TRUE
15,1,1,160,140,3,3,surveys\Slide26.bmp,6183,FALSE
15,1,1,161,141,2,2,surveys\Slide27.bmp,7886,FALSE
15,1,1,162,142,6,6,surveys\Slide28.bmp,5520,FALSE
15,1,1,163,143,2,2,surveys\Slide29.bmp,9373,FALSE
15,1,1,164,144,1,1,surveys\Slide30.bmp,5567,TRUE
15,1,1,165,145,1,1,surveys\Slide31.bmp,6760,TRUE
15,1,1,166,146,57,SPACE,surveys\Slide32.bmp,2124,TRUE
15,1,1,167,147,-1,18,What is your age (in years)?,4679,TRUE
15,1,1,168,148,1,1,surveys\Slide34.bmp,1265,TRUE
15,1,1,169,149,1,1,surveys\Slide35.bmp,1585,TRUE
15,1,1,170,150,1,1,surveys\Slide36.bmp,1279,TRUE
15,1,1,178,151,57,SPACE,Please see experimenter,1724444,TRUE
16,1,1,1,1,57,SPACE,Please wait for instructions,57626,TRUE
16,1,1,2,2,57,SPACE,instructionfollowup\Slide1.bmp,8862,TRUE
16,1,1,3,3,1,1,instructionfollowup\Slide2.bmp,2569,TRUE
16,1,1,3,4,57,SPACE,instructionfollowup\Slide3.bmp,2463,TRUE
16,1,1,4,13,9,9,mfaces\Slide1.bmp,1023,FALSE
16,1,1,5,17,1,1,mfaces\Slide2.bmp,982,TRUE
16,1,1,6,19,9,9,mfaces\Slide3.bmp,1497,FALSE
16,1,1,7,7,1,1,mfaces\Slide4.bmp,1245,TRUE
16,1,1,8,10,9,9,mfaces\Slide5.bmp,886,FALSE
16,1,1,9,21,1,1,mfaces\Slide6.bmp,992,TRUE
16,1,1,10,12,9,9,mfaces\Slide7.bmp,1055,FALSE
16,1,1,11,9,1,1,mfaces\Slide8.bmp,1254,TRUE
16,1,1,12,24,9,9,mfaces\Slide9.bmp,860,FALSE
16,1,1,13,14,1,1,mfaces\Slide10.bmp,1022,TRUE
16,1,1,14,16,1,1,mfaces\Slide11.bmp,1395,TRUE
16,1,1,15,20,9,9,mfaces\Slide12.bmp,970,FALSE
16,1,1,16,5,9,9,mfaces\Slide13.bmp,1241,FALSE
16,1,1,17,22,9,9,mfaces\Slide14.bmp,1416,FALSE
16,1,1,18,6,1,1,mfaces\Slide15.bmp,1745,TRUE
16,1,1,19,8,9,9,mfaces\Slide16.bmp,950,FALSE
16,1,1,20,23,1,1,mfaces\Slide17.bmp,1209,TRUE
16,1,1,21,11,9,9,mfaces\Slide18.bmp,916,FALSE
16,1,1,22,18,1,1,mfaces\Slide19.bmp,1328,TRUE
16,1,1,23,15,9,9,mfaces\Slide20.bmp,1146,FALSE
16,1,1,26,25,57,SPACE,instructionfollowup\Slide4.bmp,4990,TRUE
16,1,1,2,50,57,SPACE,instructionfollowup\Slide5.bmp,5044,TRUE
16,1,1,51,51,9,9,mfaces\Slide1.bmp,1074,FALSE
16,1,1,52,67,1,1,mfaces\Slide2.bmp,1110,TRUE
16,1,1,53,63,9,9,mfaces\Slide3.bmp,956,FALSE
16,1,1,54,62,1,1,mfaces\Slide4.bmp,949,TRUE
16,1,1,55,59,9,9,mfaces\Slide5.bmp,632,FALSE
16,1,1,56,65,1,1,mfaces\Slide6.bmp,920,TRUE
16,1,1,57,61,9,9,mfaces\Slide7.bmp,793,FALSE
16,1,1,58,60,1,1,mfaces\Slide8.bmp,833,TRUE
16,1,1,59,53,9,9,mfaces\Slide9.bmp,818,FALSE
16,1,1,60,58,1,1,mfaces\Slide10.bmp,967,TRUE
16,1,1,61,57,1,1,mfaces\Slide11.bmp,933,TRUE
16,1,1,62,52,9,9,mfaces\Slide12.bmp,1075,FALSE
16,1,1,63,54,1,1,mfaces\Slide13.bmp,1199,TRUE
16,1,1,64,68,9,9,mfaces\Slide14.bmp,885,FALSE
16,1,1,65,66,1,1,mfaces\Slide15.bmp,1381,TRUE
16,1,1,66,64,9,9,mfaces\Slide16.bmp,1082,FALSE
16,1,1,67,56,1,1,mfaces\Slide17.bmp,1657,TRUE
16,1,1,68,55,9,9,mfaces\Slide18.bmp,687,FALSE
16,1,1,69,70,1,1,mfaces\Slide19.bmp,1042,TRUE
16,1,1,70,69,9,9,mfaces\Slide20.bmp,1372,FALSE
16,1,1,26,71,57,SPACE,instructionfollowup\Slide4.bmp,2234,TRUE
16,1,1,135,96,57,SPACE,instructionfollowup\Slide8.bmp,19548,TRUE
16,1,1,119,99,6,6,Slide32.bmp,2662,FALSE
16,1,1,122,102,8,8,Slide32.bmp,715,FALSE
16,1,1,125,105,9,9,Slide32.bmp,462,FALSE
16,1,1,128,108,9,9,Slide32.bmp,610,FALSE
16,1,1,131,111,4,4,Slide32.bmp,2504,FALSE
16,1,1,134,114,2,2,Slide32.bmp,387,FALSE
16,1,1,135,115,57,SPACE,instructionfollowup\Slide9.bmp,1262,TRUE
16,1,1,136,116,57,SPACE,surveys\Slide2.bmp,6736,TRUE
16,1,1,137,117,2,2,surveys\Slide3.bmp,4799,FALSE
16,1,1,138,118,1,1,surveys\Slide4.bmp,3584,TRUE
16,1,1,139,119,1,1,surveys\Slide5.bmp,2908,TRUE
16,1,1,140,120,1,1,surveys\Slide6.bmp,3723,TRUE
16,1,1,141,121,1,1,surveys\Slide7.bmp,3266,TRUE
16,1,1,142,122,2,2,surveys\Slide8.bmp,4037,FALSE
16,1,1,143,123,2,2,surveys\Slide9.bmp,1255,FALSE
16,1,1,144,124,3,3,surveys\Slide10.bmp,3709,FALSE
16,1,1,145,125,57,SPACE,surveys\Slide11.bmp,7910,TRUE
16,1,1,146,126,5,5,surveys\Slide12.bmp,18018,FALSE
16,1,1,147,127,5,5,surveys\Slide13.bmp,8397,FALSE
16,1,1,148,128,6,6,surveys\Slide14.bmp,6201,FALSE
16,1,1,149,129,3,3,surveys\Slide15.bmp,7648,FALSE
16,1,1,150,130,3,3,surveys\Slide16.bmp,9438,FALSE
16,1,1,151,131,5,5,surveys\Slide17.bmp,10490,FALSE
16,1,1,152,132,4,4,surveys\Slide18.bmp,7101,FALSE
16,1,1,153,133,5,5,surveys\Slide19.bmp,6848,FALSE
16,1,1,154,134,4,4,surveys\Slide20.bmp,8005,FALSE
16,1,1,155,135,5,5,surveys\Slide21.bmp,8161,FALSE
16,1,1,156,136,57,SPACE,surveys\Slide22.bmp,5747,TRUE
16,1,1,157,137,1,1,surveys\Slide23.bmp,8152,TRUE
16,1,1,158,138,2,2,surveys\Slide24.bmp,6111,FALSE
16,1,1,159,139,2,2,surveys\Slide25.bmp,9599,FALSE
16,1,1,160,140,6,6,surveys\Slide26.bmp,7305,FALSE
16,1,1,161,141,2,2,surveys\Slide27.bmp,8718,FALSE
16,1,1,162,142,5,5,surveys\Slide28.bmp,7157,FALSE
16,1,1,163,143,7,7,surveys\Slide29.bmp,10981,FALSE
16,1,1,164,144,5,5,surveys\Slide30.bmp,9629,FALSE
16,1,1,165,145,2,2,surveys\Slide31.bmp,5948,FALSE
16,1,1,166,146,57,SPACE,surveys\Slide32.bmp,1879,TRUE
16,1,1,167,147,-1,18,What is your age (in years)?,3889,TRUE
16,1,1,168,148,1,1,surveys\Slide34.bmp,1813,TRUE
16,1,1,169,149,1,1,surveys\Slide35.bmp,3241,TRUE
16,1,1,170,150,1,1,surveys\Slide36.bmp,1585,TRUE
16,1,1,178,151,70,SCROLLLOCK,Please see experimenter,4619290,TRUE
17,1,1,1,1,57,SPACE,Please wait for instructions,66781,TRUE
17,1,1,2,2,57,SPACE,instructionfollowup\Slide1.bmp,7876,TRUE
17,1,1,3,3,9,9,instructionfollowup\Slide2.bmp,549,FALSE
17,1,1,3,4,57,SPACE,instructionfollowup\Slide3.bmp,3676,TRUE
17,1,1,4,21,1,1,mfaces\Slide1.bmp,1311,TRUE
17,1,1,5,13,1,1,mfaces\Slide2.bmp,1041,TRUE
17,1,1,6,19,9,9,mfaces\Slide3.bmp,945,FALSE
17,1,1,7,12,1,1,mfaces\Slide4.bmp,1179,TRUE
17,1,1,8,14,9,9,mfaces\Slide5.bmp,1184,FALSE
17,1,1,9,5,1,1,mfaces\Slide6.bmp,1644,TRUE
17,1,1,10,20,9,9,mfaces\Slide7.bmp,1104,FALSE
17,1,1,11,22,9,9,mfaces\Slide8.bmp,1658,FALSE
17,1,1,12,6,9,9,mfaces\Slide9.bmp,1662,FALSE
17,1,1,13,24,1,1,mfaces\Slide10.bmp,1594,TRUE
17,1,1,14,7,1,1,mfaces\Slide11.bmp,1596,TRUE
17,1,1,15,8,1,1,mfaces\Slide12.bmp,1658,TRUE
17,1,1,16,16,1,1,mfaces\Slide13.bmp,1481,TRUE
17,1,1,17,10,9,9,mfaces\Slide14.bmp,1338,FALSE
17,1,1,18,17,1,1,mfaces\Slide15.bmp,1120,TRUE
17,1,1,19,18,9,9,mfaces\Slide16.bmp,1034,FALSE
17,1,1,20,11,1,1,mfaces\Slide17.bmp,1188,TRUE
17,1,1,21,23,9,9,mfaces\Slide18.bmp,1717,FALSE
17,1,1,22,15,1,1,mfaces\Slide19.bmp,1146,TRUE
17,1,1,23,9,-1,-1,mfaces\Slide20.bmp,2001,FALSE
17,1,1,26,25,57,SPACE,instructionfollowup\Slide4.bmp,2567,TRUE
17,1,1,2,50,57,SPACE,instructionfollowup\Slide5.bmp,6258,TRUE
17,1,1,51,65,9,9,mfaces\Slide1.bmp,1085,FALSE
17,1,1,52,68,1,1,mfaces\Slide2.bmp,1005,TRUE
17,1,1,53,66,9,9,mfaces\Slide3.bmp,870,FALSE
17,1,1,54,69,1,1,mfaces\Slide4.bmp,908,TRUE
17,1,1,55,57,9,9,mfaces\Slide5.bmp,1245,FALSE
17,1,1,56,52,1,1,mfaces\Slide6.bmp,1289,TRUE
17,1,1,57,62,9,9,mfaces\Slide7.bmp,1228,FALSE
17,1,1,58,64,1,1,mfaces\Slide8.bmp,1140,TRUE
17,1,1,59,67,9,9,mfaces\Slide9.bmp,1221,FALSE
17,1,1,60,56,1,1,mfaces\Slide10.bmp,1063,TRUE
17,1,1,61,54,1,1,mfaces\Slide11.bmp,1131,TRUE
17,1,1,62,61,9,9,mfaces\Slide12.bmp,765,FALSE
17,1,1,63,51,1,1,mfaces\Slide13.bmp,1380,TRUE
17,1,1,64,70,9,9,mfaces\Slide14.bmp,1085,FALSE
17,1,1,65,58,1,1,mfaces\Slide15.bmp,1082,TRUE
17,1,1,66,55,9,9,mfaces\Slide16.bmp,964,FALSE
17,1,1,67,59,1,1,mfaces\Slide17.bmp,1222,TRUE
17,1,1,68,53,9,9,mfaces\Slide18.bmp,903,FALSE
17,1,1,69,60,1,1,mfaces\Slide19.bmp,1180,TRUE
17,1,1,70,63,9,9,mfaces\Slide20.bmp,1178,FALSE
17,1,1,26,71,57,SPACE,instructionfollowup\Slide4.bmp,2099,TRUE
17,1,1,135,96,57,SPACE,instructionfollowup\Slide8.bmp,16436,TRUE
17,1,1,119,99,1,1,Slide32.bmp,1578,TRUE
17,1,1,122,102,9,9,Slide32.bmp,802,FALSE
17,1,1,125,105,1,1,Slide32.bmp,382,TRUE
17,1,1,128,108,9,9,Slide32.bmp,201,FALSE
17,1,1,131,111,1,1,Slide32.bmp,675,TRUE
17,1,1,134,114,1,1,Slide32.bmp,541,TRUE
17,1,1,135,115,57,SPACE,instructionfollowup\Slide9.bmp,1292,TRUE
17,1,1,136,116,57,SPACE,surveys\Slide2.bmp,12596,TRUE
17,1,1,137,117,1,1,surveys\Slide3.bmp,2638,TRUE
17,1,1,138,118,1,1,surveys\Slide4.bmp,797,TRUE
17,1,1,139,119,1,1,surveys\Slide5.bmp,671,TRUE
17,1,1,140,120,1,1,surveys\Slide6.bmp,1728,TRUE
17,1,1,141,121,1,1,surveys\Slide7.bmp,1481,TRUE
17,1,1,142,122,3,3,surveys\Slide8.bmp,2985,FALSE
17,1,1,143,123,1,1,surveys\Slide9.bmp,916,TRUE
17,1,1,144,124,2,2,surveys\Slide10.bmp,3421,FALSE
17,1,1,145,125,57,SPACE,surveys\Slide11.bmp,4402,TRUE
17,1,1,146,126,5,5,surveys\Slide12.bmp,10612,FALSE
17,1,1,147,127,2,2,surveys\Slide13.bmp,7478,FALSE
17,1,1,148,128,6,6,surveys\Slide14.bmp,6549,FALSE
17,1,1,149,129,4,4,surveys\Slide15.bmp,11078,FALSE
17,1,1,150,130,2,2,surveys\Slide16.bmp,6081,FALSE
17,1,1,151,131,5,5,surveys\Slide17.bmp,13021,FALSE
17,1,1,152,132,2,2,surveys\Slide18.bmp,6206,FALSE
17,1,1,153,133,5,5,surveys\Slide19.bmp,7544,FALSE
17,1,1,154,134,2,2,surveys\Slide20.bmp,7246,FALSE
17,1,1,155,135,5,5,surveys\Slide21.bmp,8279,FALSE
17,1,1,156,136,57,SPACE,surveys\Slide22.bmp,6620,TRUE
17,1,1,157,137,2,2,surveys\Slide23.bmp,6096,FALSE
17,1,1,158,138,2,2,surveys\Slide24.bmp,3970,FALSE
17,1,1,159,139,1,1,surveys\Slide25.bmp,8072,TRUE
17,1,1,160,140,3,3,surveys\Slide26.bmp,6357,FALSE
17,1,1,161,141,4,4,surveys\Slide27.bmp,4423,FALSE
17,1,1,162,142,6,6,surveys\Slide28.bmp,5989,FALSE
17,1,1,163,143,4,4,surveys\Slide29.bmp,16166,FALSE
17,1,1,164,144,2,2,surveys\Slide30.bmp,4804,FALSE
17,1,1,165,145,3,3,surveys\Slide31.bmp,8014,FALSE
17,1,1,166,146,57,SPACE,surveys\Slide32.bmp,1604,TRUE
17,1,1,167,147,-1,18,What is your age (in years)?,7439,TRUE
17,1,1,168,148,1,1,surveys\Slide34.bmp,3676,TRUE
17,1,1,169,149,2,2,surveys\Slide35.bmp,1526,FALSE
17,1,1,170,150,2,2,surveys\Slide36.bmp,6907,FALSE
17,1,1,178,151,57,SPACE,Please see experimenter,4704901,TRUE
18,1,1,1,1,57,SPACE,Please wait for instructions,71916,TRUE
18,1,1,2,2,57,SPACE,instructionfollowup\Slide1.bmp,19574,TRUE
18,1,1,3,3,9,9,instructionfollowup\Slide2.bmp,1032,FALSE
18,1,1,3,4,57,SPACE,instructionfollowup\Slide3.bmp,4258,TRUE
18,1,1,4,15,9,9,mfaces\Slide1.bmp,1030,FALSE
18,1,1,5,5,1,1,mfaces\Slide2.bmp,1407,TRUE
18,1,1,6,20,9,9,mfaces\Slide3.bmp,1024,FALSE
18,1,1,7,17,1,1,mfaces\Slide4.bmp,864,TRUE
18,1,1,8,16,9,9,mfaces\Slide5.bmp,889,FALSE
18,1,1,9,13,1,1,mfaces\Slide6.bmp,899,TRUE
18,1,1,10,11,9,9,mfaces\Slide7.bmp,869,FALSE
18,1,1,11,12,1,1,mfaces\Slide8.bmp,945,TRUE
18,1,1,12,21,9,9,mfaces\Slide9.bmp,945,FALSE
18,1,1,13,7,1,1,mfaces\Slide10.bmp,1394,TRUE
18,1,1,14,14,1,1,mfaces\Slide11.bmp,1220,TRUE
18,1,1,15,9,9,9,mfaces\Slide12.bmp,1436,FALSE
18,1,1,16,6,1,1,mfaces\Slide13.bmp,943,TRUE
18,1,1,17,22,9,9,mfaces\Slide14.bmp,1442,FALSE
18,1,1,18,10,1,1,mfaces\Slide15.bmp,1111,TRUE
18,1,1,19,8,1,1,mfaces\Slide16.bmp,1331,TRUE
18,1,1,20,24,1,1,mfaces\Slide17.bmp,1303,TRUE
18,1,1,21,23,9,9,mfaces\Slide18.bmp,966,FALSE
18,1,1,22,19,1,1,mfaces\Slide19.bmp,1027,TRUE
18,1,1,23,18,9,9,mfaces\Slide20.bmp,844,FALSE
18,1,1,26,25,57,SPACE,instructionfollowup\Slide4.bmp,3757,TRUE
18,1,1,2,50,57,SPACE,instructionfollowup\Slide5.bmp,6592,TRUE
18,1,1,51,70,9,9,mfaces\Slide1.bmp,1099,FALSE
18,1,1,52,63,1,1,mfaces\Slide2.bmp,1046,TRUE
18,1,1,53,69,9,9,mfaces\Slide3.bmp,717,FALSE
18,1,1,54,59,1,1,mfaces\Slide4.bmp,1080,TRUE
18,1,1,55,58,9,9,mfaces\Slide5.bmp,1362,FALSE
18,1,1,56,54,1,1,mfaces\Slide6.bmp,949,TRUE
18,1,1,57,60,9,9,mfaces\Slide7.bmp,846,FALSE
18,1,1,58,55,1,1,mfaces\Slide8.bmp,1035,TRUE
18,1,1,59,61,9,9,mfaces\Slide9.bmp,965,FALSE
18,1,1,60,66,1,1,mfaces\Slide10.bmp,724,TRUE
18,1,1,61,52,1,1,mfaces\Slide11.bmp,951,TRUE
18,1,1,62,65,9,9,mfaces\Slide12.bmp,750,FALSE
18,1,1,63,64,1,1,mfaces\Slide13.bmp,846,TRUE
18,1,1,64,51,9,9,mfaces\Slide14.bmp,1100,FALSE
18,1,1,65,56,1,1,mfaces\Slide15.bmp,864,TRUE
18,1,1,66,68,9,9,mfaces\Slide16.bmp,845,FALSE
18,1,1,67,57,1,1,mfaces\Slide17.bmp,1011,TRUE
18,1,1,68,53,9,9,mfaces\Slide18.bmp,893,FALSE
18,1,1,69,67,1,1,mfaces\Slide19.bmp,786,TRUE
18,1,1,70,62,1,1,mfaces\Slide20.bmp,845,TRUE
18,1,1,26,71,57,SPACE,instructionfollowup\Slide4.bmp,4026,TRUE
18,1,1,135,96,57,SPACE,instructionfollowup\Slide8.bmp,27936,TRUE
18,1,1,119,99,1,1,Slide32.bmp,612,TRUE
18,1,1,122,102,9,9,Slide32.bmp,284,FALSE
18,1,1,125,105,1,1,Slide32.bmp,261,TRUE
18,1,1,128,108,5,5,Slide32.bmp,694,FALSE
18,1,1,131,111,1,1,Slide32.bmp,265,TRUE
18,1,1,134,114,5,5,Slide32.bmp,396,FALSE
18,1,1,135,115,57,SPACE,instructionfollowup\Slide9.bmp,2287,TRUE
18,1,1,136,116,3,3,surveys\Slide2.bmp,8707,TRUE
18,1,1,137,117,1,1,surveys\Slide3.bmp,2152,TRUE
18,1,1,138,118,1,1,surveys\Slide4.bmp,1053,TRUE
18,1,1,139,119,1,1,surveys\Slide5.bmp,618,TRUE
18,1,1,140,120,1,1,surveys\Slide6.bmp,1905,TRUE
18,1,1,141,121,1,1,surveys\Slide7.bmp,991,TRUE
18,1,1,142,122,3,3,surveys\Slide8.bmp,3849,FALSE
18,1,1,143,123,1,1,surveys\Slide9.bmp,835,TRUE
18,1,1,144,124,1,1,surveys\Slide10.bmp,847,TRUE
18,1,1,145,125,57,SPACE,surveys\Slide11.bmp,7316,TRUE
18,1,1,146,126,6,6,surveys\Slide12.bmp,14038,FALSE
18,1,1,147,127,5,5,surveys\Slide13.bmp,7734,FALSE
18,1,1,148,128,5,5,surveys\Slide14.bmp,9420,FALSE
18,1,1,149,129,6,6,surveys\Slide15.bmp,6527,FALSE
18,1,1,150,130,4,4,surveys\Slide16.bmp,9368,FALSE
18,1,1,151,131,5,5,surveys\Slide17.bmp,8137,FALSE
18,1,1,152,132,2,2,surveys\Slide18.bmp,9069,FALSE
18,1,1,153,133,5,5,surveys\Slide19.bmp,7683,FALSE
18,1,1,154,134,6,6,surveys\Slide20.bmp,10509,FALSE
18,1,1,155,135,5,5,surveys\Slide21.bmp,8842,FALSE
18,1,1,156,136,57,SPACE,surveys\Slide22.bmp,5947,TRUE
18,1,1,157,137,8,8,surveys\Slide23.bmp,9158,FALSE
18,1,1,158,138,6,6,surveys\Slide24.bmp,9020,FALSE
18,1,1,159,139,6,6,surveys\Slide25.bmp,6856,FALSE
18,1,1,160,140,7,7,surveys\Slide26.bmp,6606,FALSE
18,1,1,161,141,6,6,surveys\Slide27.bmp,6728,FALSE
18,1,1,162,142,2,2,surveys\Slide28.bmp,6143,FALSE
18,1,1,163,143,9,9,surveys\Slide29.bmp,10161,FALSE
18,1,1,164,144,7,7,surveys\Slide30.bmp,9345,FALSE
18,1,1,165,145,9,9,surveys\Slide31.bmp,7620,FALSE
18,1,1,166,146,57,SPACE,surveys\Slide32.bmp,2393,TRUE
18,1,1,167,147,-1,19,What is your age (in years)?,5923,TRUE
18,1,1,168,148,1,1,surveys\Slide34.bmp,2955,TRUE
18,1,1,169,149,2,2,surveys\Slide35.bmp,2778,FALSE
18,1,1,170,150,2,2,surveys\Slide36.bmp,2720,FALSE
18,1,1,178,151,57,SPACE,Please see experimenter,2579185,TRUE
19,1,1,1,1,57,SPACE,Please wait for instructions,51654,TRUE
19,1,1,2,2,57,SPACE,instructionfollowup\Slide1.bmp,10320,TRUE
19,1,1,3,3,9,9,instructionfollowup\Slide2.bmp,287,FALSE
19,1,1,3,4,57,SPACE,instructionfollowup\Slide3.bmp,2466,TRUE
19,1,1,4,7,1,1,mfaces\Slide1.bmp,1061,TRUE
19,1,1,5,11,1,1,mfaces\Slide2.bmp,795,TRUE
19,1,1,6,12,1,1,mfaces\Slide3.bmp,1065,TRUE
19,1,1,7,16,1,1,mfaces\Slide4.bmp,806,TRUE
19,1,1,8,8,1,1,mfaces\Slide5.bmp,1120,TRUE
19,1,1,9,23,1,1,mfaces\Slide6.bmp,995,TRUE
19,1,1,10,10,9,9,mfaces\Slide7.bmp,911,FALSE
19,1,1,11,24,1,1,mfaces\Slide8.bmp,1054,TRUE
19,1,1,12,14,9,9,mfaces\Slide9.bmp,971,FALSE
19,1,1,13,21,9,9,mfaces\Slide10.bmp,1661,FALSE
19,1,1,14,20,9,9,mfaces\Slide11.bmp,1307,FALSE
19,1,1,15,15,9,9,mfaces\Slide12.bmp,827,FALSE
19,1,1,16,13,9,9,mfaces\Slide13.bmp,1443,FALSE
19,1,1,17,17,1,1,mfaces\Slide14.bmp,1391,TRUE
19,1,1,18,9,1,1,mfaces\Slide15.bmp,1246,TRUE
19,1,1,19,22,9,9,mfaces\Slide16.bmp,1950,FALSE
19,1,1,20,6,-1,-1,mfaces\Slide17.bmp,2001,FALSE
19,1,1,21,19,9,9,mfaces\Slide18.bmp,1465,FALSE
19,1,1,22,18,1,1,mfaces\Slide19.bmp,1451,TRUE
19,1,1,23,5,1,1,mfaces\Slide20.bmp,1731,TRUE
19,1,1,26,25,57,SPACE,instructionfollowup\Slide4.bmp,2602,TRUE
19,1,1,2,50,57,SPACE,instructionfollowup\Slide5.bmp,5359,TRUE
19,1,1,51,55,9,9,mfaces\Slide1.bmp,977,FALSE
19,1,1,52,56,1,1,mfaces\Slide2.bmp,973,TRUE
19,1,1,53,63,1,1,mfaces\Slide3.bmp,1412,TRUE
19,1,1,54,60,1,1,mfaces\Slide4.bmp,1131,TRUE
19,1,1,55,58,9,9,mfaces\Slide5.bmp,978,FALSE
19,1,1,56,59,1,1,mfaces\Slide6.bmp,1309,TRUE
19,1,1,57,67,9,9,mfaces\Slide7.bmp,1119,FALSE
19,1,1,58,64,1,1,mfaces\Slide8.bmp,932,TRUE
19,1,1,59,53,9,9,mfaces\Slide9.bmp,886,FALSE
19,1,1,60,68,1,1,mfaces\Slide10.bmp,1027,TRUE
19,1,1,61,51,9,9,mfaces\Slide11.bmp,1471,FALSE
19,1,1,62,57,9,9,mfaces\Slide12.bmp,789,FALSE
19,1,1,63,54,9,9,mfaces\Slide13.bmp,944,FALSE
19,1,1,64,52,9,9,mfaces\Slide14.bmp,1020,FALSE
19,1,1,65,62,1,1,mfaces\Slide15.bmp,1132,TRUE
19,1,1,66,69,9,9,mfaces\Slide16.bmp,1311,FALSE
19,1,1,67,65,1,1,mfaces\Slide17.bmp,1044,TRUE
19,1,1,68,70,9,9,mfaces\Slide18.bmp,976,FALSE
19,1,1,69,61,9,9,mfaces\Slide19.bmp,1826,FALSE
19,1,1,70,66,1,1,mfaces\Slide20.bmp,1154,TRUE
19,1,1,26,71,57,SPACE,instructionfollowup\Slide4.bmp,2264,TRUE
19,1,1,135,96,57,SPACE,instructionfollowup\Slide8.bmp,17117,TRUE
19,1,1,119,99,9,9,Slide32.bmp,1772,FALSE
19,1,1,122,102,8,8,Slide32.bmp,418,FALSE
19,1,1,125,105,1,1,Slide32.bmp,261,TRUE
19,1,1,128,108,9,9,Slide32.bmp,264,FALSE
19,1,1,131,111,5,5,Slide32.bmp,218,FALSE
19,1,1,134,114,1,1,Slide32.bmp,254,TRUE
19,1,1,135,115,57,SPACE,instructionfollowup\Slide9.bmp,2023,TRUE
19,1,1,136,116,57,SPACE,surveys\Slide2.bmp,6365,TRUE
19,1,1,137,117,1,1,surveys\Slide3.bmp,1673,TRUE
19,1,1,138,118,1,1,surveys\Slide4.bmp,1673,TRUE
19,1,1,139,119,1,1,surveys\Slide5.bmp,1707,TRUE
19,1,1,140,120,2,2,surveys\Slide6.bmp,1993,FALSE
19,1,1,141,121,1,1,surveys\Slide7.bmp,1708,TRUE
19,1,1,142,122,3,3,surveys\Slide8.bmp,2986,FALSE
19,1,1,143,123,1,1,surveys\Slide9.bmp,1558,TRUE
19,1,1,144,124,5,5,surveys\Slide10.bmp,1816,FALSE
19,1,1,145,125,57,SPACE,surveys\Slide11.bmp,4384,TRUE
19,1,1,146,126,7,7,surveys\Slide12.bmp,13499,FALSE
19,1,1,147,127,5,5,surveys\Slide13.bmp,6930,FALSE
19,1,1,148,128,6,6,surveys\Slide14.bmp,7159,FALSE
19,1,1,149,129,3,3,surveys\Slide15.bmp,6826,FALSE
19,1,1,150,130,1,1,surveys\Slide16.bmp,6052,TRUE
19,1,1,151,131,3,3,surveys\Slide17.bmp,12009,FALSE
19,1,1,152,132,4,4,surveys\Slide18.bmp,9486,FALSE
19,1,1,153,133,2,2,surveys\Slide19.bmp,7822,FALSE
19,1,1,154,134,7,7,surveys\Slide20.bmp,10641,FALSE
19,1,1,155,135,5,5,surveys\Slide21.bmp,12269,FALSE
19,1,1,156,136,57,SPACE,surveys\Slide22.bmp,7528,TRUE
19,1,1,157,137,1,1,surveys\Slide23.bmp,5151,TRUE
19,1,1,158,138,1,1,surveys\Slide24.bmp,9811,TRUE
19,1,1,159,139,1,1,surveys\Slide25.bmp,6706,TRUE
19,1,1,160,140,5,5,surveys\Slide26.bmp,7322,FALSE
19,1,1,161,141,2,2,surveys\Slide27.bmp,7918,FALSE
19,1,1,162,142,2,2,surveys\Slide28.bmp,10151,FALSE
19,1,1,163,143,2,2,surveys\Slide29.bmp,6814,FALSE
19,1,1,164,144,4,4,surveys\Slide30.bmp,7281,FALSE
19,1,1,165,145,3,3,surveys\Slide31.bmp,9009,FALSE
19,1,1,166,146,57,SPACE,surveys\Slide32.bmp,1393,TRUE
19,1,1,167,147,-1,20,What is your age (in years)?,2603,TRUE
19,1,1,168,148,2,2,surveys\Slide34.bmp,2358,FALSE
19,1,1,169,149,1,1,surveys\Slide35.bmp,2719,TRUE
19,1,1,170,150,1,1,surveys\Slide36.bmp,1631,TRUE
19,1,1,178,151,57,SPACE,Please see experimenter,1169509,TRUE
20,1,1,1,1,57,SPACE,Please wait for instructions,59560,TRUE
20,1,1,2,2,57,SPACE,instructionfollowup\Slide1.bmp,12219,TRUE
20,1,1,3,3,1,1,instructionfollowup\Slide2.bmp,853,TRUE
20,1,1,3,4,57,SPACE,instructionfollowup\Slide3.bmp,7053,TRUE
20,1,1,4,13,9,9,mfaces\Slide1.bmp,1257,FALSE
20,1,1,5,23,1,1,mfaces\Slide2.bmp,961,TRUE
20,1,1,6,20,9,9,mfaces\Slide3.bmp,961,FALSE
20,1,1,7,22,1,1,mfaces\Slide4.bmp,865,TRUE
20,1,1,8,15,9,9,mfaces\Slide5.bmp,1011,FALSE
20,1,1,9,24,1,1,mfaces\Slide6.bmp,1100,TRUE
20,1,1,10,10,9,9,mfaces\Slide7.bmp,1464,FALSE
20,1,1,11,21,9,9,mfaces\Slide8.bmp,884,FALSE
20,1,1,12,9,9,9,mfaces\Slide9.bmp,1230,FALSE
20,1,1,13,17,1,1,mfaces\Slide10.bmp,1032,TRUE
20,1,1,14,12,1,1,mfaces\Slide11.bmp,1145,TRUE
20,1,1,15,11,9,9,mfaces\Slide12.bmp,984,FALSE
20,1,1,16,14,9,9,mfaces\Slide13.bmp,1081,FALSE
20,1,1,17,19,9,9,mfaces\Slide14.bmp,924,FALSE
20,1,1,18,5,1,1,mfaces\Slide15.bmp,1443,TRUE
20,1,1,19,6,9,9,mfaces\Slide16.bmp,1216,FALSE
20,1,1,20,16,9,9,mfaces\Slide17.bmp,1303,FALSE
20,1,1,21,8,9,9,mfaces\Slide18.bmp,1410,FALSE
20,1,1,22,18,1,1,mfaces\Slide19.bmp,900,TRUE
20,1,1,23,7,9,9,mfaces\Slide20.bmp,1479,FALSE
20,1,1,26,25,57,SPACE,instructionfollowup\Slide4.bmp,4966,TRUE
20,1,1,2,50,57,SPACE,instructionfollowup\Slide5.bmp,7118,TRUE
20,1,1,51,67,1,1,mfaces\Slide1.bmp,591,TRUE
20,1,1,52,55,1,1,mfaces\Slide2.bmp,727,TRUE
20,1,1,53,57,1,1,mfaces\Slide3.bmp,1134,TRUE
20,1,1,54,64,1,1,mfaces\Slide4.bmp,655,TRUE
20,1,1,55,63,9,9,mfaces\Slide5.bmp,742,FALSE
20,1,1,56,65,1,1,mfaces\Slide6.bmp,804,TRUE
20,1,1,57,54,9,9,mfaces\Slide7.bmp,970,FALSE
20,1,1,58,61,1,1,mfaces\Slide8.bmp,968,TRUE
20,1,1,59,53,9,9,mfaces\Slide9.bmp,826,FALSE
20,1,1,60,51,1,1,mfaces\Slide10.bmp,897,TRUE
20,1,1,61,60,1,1,mfaces\Slide11.bmp,1051,TRUE
20,1,1,62,66,9,9,mfaces\Slide12.bmp,762,FALSE
20,1,1,63,56,1,1,mfaces\Slide13.bmp,1262,TRUE
20,1,1,64,62,1,1,mfaces\Slide14.bmp,1302,TRUE
20,1,1,65,70,9,9,mfaces\Slide15.bmp,691,FALSE
20,1,1,66,52,9,9,mfaces\Slide16.bmp,786,FALSE
20,1,1,67,68,1,1,mfaces\Slide17.bmp,674,TRUE
20,1,1,68,59,9,9,mfaces\Slide18.bmp,752,FALSE
20,1,1,69,69,1,1,mfaces\Slide19.bmp,773,TRUE
20,1,1,70,58,9,9,mfaces\Slide20.bmp,762,FALSE
20,1,1,26,71,57,SPACE,instructionfollowup\Slide4.bmp,3827,TRUE
20,1,1,135,96,57,SPACE,instructionfollowup\Slide8.bmp,23826,TRUE
20,1,1,119,99,1,1,Slide32.bmp,3715,TRUE
20,1,1,122,102,9,9,Slide32.bmp,1390,FALSE
20,1,1,125,105,1,1,Slide32.bmp,450,TRUE
20,1,1,128,108,9,9,Slide32.bmp,434,FALSE
20,1,1,131,111,1,1,Slide32.bmp,518,TRUE
20,1,1,134,114,1,1,Slide32.bmp,347,TRUE
20,1,1,135,115,57,SPACE,instructionfollowup\Slide9.bmp,2705,TRUE
20,1,1,136,116,1,1,surveys\Slide2.bmp,6372,TRUE
20,1,1,137,117,1,1,surveys\Slide3.bmp,2425,TRUE
20,1,1,138,118,1,1,surveys\Slide4.bmp,1116,TRUE
20,1,1,139,119,1,1,surveys\Slide5.bmp,1005,TRUE
20,1,1,140,120,1,1,surveys\Slide6.bmp,1320,TRUE
20,1,1,141,121,1,1,surveys\Slide7.bmp,1183,TRUE
20,1,1,142,122,3,3,surveys\Slide8.bmp,2668,FALSE
20,1,1,143,123,1,1,surveys\Slide9.bmp,2735,TRUE
20,1,1,144,124,2,2,surveys\Slide10.bmp,2239,FALSE
20,1,1,145,125,57,SPACE,surveys\Slide11.bmp,7726,TRUE
20,1,1,146,126,5,5,surveys\Slide12.bmp,17316,FALSE
20,1,1,147,127,7,7,surveys\Slide13.bmp,7279,FALSE
20,1,1,148,128,7,7,surveys\Slide14.bmp,6168,FALSE
20,1,1,149,129,7,7,surveys\Slide15.bmp,7218,FALSE
20,1,1,150,130,1,1,surveys\Slide16.bmp,9229,TRUE
20,1,1,151,131,7,7,surveys\Slide17.bmp,8079,FALSE
20,1,1,152,132,4,4,surveys\Slide18.bmp,11799,FALSE
20,1,1,153,133,7,7,surveys\Slide19.bmp,7415,FALSE
20,1,1,154,134,7,7,surveys\Slide20.bmp,10401,FALSE
20,1,1,155,135,1,1,surveys\Slide21.bmp,8718,TRUE
20,1,1,156,136,57,SPACE,surveys\Slide22.bmp,8117,TRUE
20,1,1,157,137,5,5,surveys\Slide23.bmp,14364,FALSE
20,1,1,158,138,2,2,surveys\Slide24.bmp,13708,FALSE
20,1,1,159,139,1,1,surveys\Slide25.bmp,9335,TRUE
20,1,1,160,140,6,6,surveys\Slide26.bmp,8223,FALSE
20,1,1,161,141,1,1,surveys\Slide27.bmp,5469,TRUE
20,1,1,162,142,1,1,surveys\Slide28.bmp,5500,TRUE
20,1,1,163,143,1,1,surveys\Slide29.bmp,7444,TRUE
20,1,1,164,144,2,2,surveys\Slide30.bmp,9532,FALSE
20,1,1,165,145,1,1,surveys\Slide31.bmp,9444,TRUE
20,1,1,166,146,57,SPACE,surveys\Slide32.bmp,3091,TRUE
20,1,1,167,147,-1,18,What is your age (in years)?,7002,TRUE
20,1,1,168,148,1,1,surveys\Slide34.bmp,3998,TRUE
20,1,1,169,149,2,2,surveys\Slide35.bmp,2246,FALSE
20,1,1,170,150,1,1,surveys\Slide36.bmp,3262,TRUE
20,1,1,178,151,57,SPACE,Please see experimenter,2350693,TRUE
21,1,1,1,1,57,SPACE,Please wait for instructions,61313,TRUE
21,1,1,2,2,57,SPACE,instructionfollowup\Slide1.bmp,11165,TRUE
21,1,1,3,3,9,9,instructionfollowup\Slide2.bmp,440,FALSE
21,1,1,3,4,57,SPACE,instructionfollowup\Slide3.bmp,2422,TRUE
21,1,1,4,22,9,9,mfaces\Slide1.bmp,750,FALSE
21,1,1,5,14,1,1,mfaces\Slide2.bmp,1198,TRUE
21,1,1,6,10,9,9,mfaces\Slide3.bmp,1180,FALSE
21,1,1,7,19,1,1,mfaces\Slide4.bmp,852,TRUE
21,1,1,8,21,9,9,mfaces\Slide5.bmp,877,FALSE
21,1,1,9,6,1,1,mfaces\Slide6.bmp,1251,TRUE
21,1,1,10,12,9,9,mfaces\Slide7.bmp,971,FALSE
21,1,1,11,16,1,1,mfaces\Slide8.bmp,847,TRUE
21,1,1,12,8,9,9,mfaces\Slide9.bmp,911,FALSE
21,1,1,13,24,1,1,mfaces\Slide10.bmp,855,TRUE
21,1,1,14,20,1,1,mfaces\Slide11.bmp,807,TRUE
21,1,1,15,15,9,9,mfaces\Slide12.bmp,841,FALSE
21,1,1,16,11,1,1,mfaces\Slide13.bmp,951,TRUE
21,1,1,17,13,9,9,mfaces\Slide14.bmp,1135,FALSE
21,1,1,18,5,1,1,mfaces\Slide15.bmp,1003,TRUE
21,1,1,19,17,9,9,mfaces\Slide16.bmp,641,FALSE
21,1,1,20,23,1,1,mfaces\Slide17.bmp,923,TRUE
21,1,1,21,7,9,9,mfaces\Slide18.bmp,1455,FALSE
21,1,1,22,18,9,9,mfaces\Slide19.bmp,1005,FALSE
21,1,1,23,9,9,9,mfaces\Slide20.bmp,923,FALSE
21,1,1,26,25,57,SPACE,instructionfollowup\Slide4.bmp,2599,TRUE
21,1,1,2,50,57,SPACE,instructionfollowup\Slide5.bmp,5908,TRUE
21,1,1,51,54,9,9,mfaces\Slide1.bmp,987,FALSE
21,1,1,52,55,1,1,mfaces\Slide2.bmp,1045,TRUE
21,1,1,53,53,9,9,mfaces\Slide3.bmp,984,FALSE
21,1,1,54,58,1,1,mfaces\Slide4.bmp,731,TRUE
21,1,1,55,66,9,9,mfaces\Slide5.bmp,752,FALSE
21,1,1,56,67,1,1,mfaces\Slide6.bmp,945,TRUE
21,1,1,57,59,9,9,mfaces\Slide7.bmp,584,FALSE
21,1,1,58,51,1,1,mfaces\Slide8.bmp,1085,TRUE
21,1,1,59,57,9,9,mfaces\Slide9.bmp,761,FALSE
21,1,1,60,65,1,1,mfaces\Slide10.bmp,965,TRUE
21,1,1,61,68,1,1,mfaces\Slide11.bmp,949,TRUE
21,1,1,62,63,9,9,mfaces\Slide12.bmp,756,FALSE
21,1,1,63,52,1,1,mfaces\Slide13.bmp,1192,TRUE
21,1,1,64,69,1,1,mfaces\Slide14.bmp,1039,TRUE
21,1,1,65,61,1,1,mfaces\Slide15.bmp,967,TRUE
21,1,1,66,60,9,9,mfaces\Slide16.bmp,706,FALSE
21,1,1,67,70,1,1,mfaces\Slide17.bmp,1060,TRUE
21,1,1,68,62,9,9,mfaces\Slide18.bmp,890,FALSE
21,1,1,69,56,1,1,mfaces\Slide19.bmp,1174,TRUE
21,1,1,70,64,9,9,mfaces\Slide20.bmp,958,FALSE
21,1,1,26,71,57,SPACE,instructionfollowup\Slide4.bmp,1486,TRUE
21,1,1,135,96,57,SPACE,instructionfollowup\Slide8.bmp,13372,TRUE
21,1,1,119,99,1,1,Slide32.bmp,1194,TRUE
21,1,1,122,102,9,9,Slide32.bmp,688,FALSE
21,1,1,125,105,5,5,Slide32.bmp,404,FALSE
21,1,1,128,108,9,9,Slide32.bmp,477,FALSE
21,1,1,131,111,3,3,Slide32.bmp,1767,FALSE
21,1,1,134,114,5,5,Slide32.bmp,343,FALSE
21,1,1,135,115,57,SPACE,instructionfollowup\Slide9.bmp,1299,TRUE
21,1,1,136,116,3,3,surveys\Slide2.bmp,7055,TRUE
21,1,1,137,117,1,1,surveys\Slide3.bmp,1817,TRUE
21,1,1,138,118,2,2,surveys\Slide4.bmp,1488,FALSE
21,1,1,139,119,1,1,surveys\Slide5.bmp,1066,TRUE
21,1,1,140,120,3,3,surveys\Slide6.bmp,2029,FALSE
21,1,1,141,121,3,3,surveys\Slide7.bmp,1660,FALSE
21,1,1,142,122,3,3,surveys\Slide8.bmp,1294,FALSE
21,1,1,143,123,1,1,surveys\Slide9.bmp,1228,TRUE
21,1,1,144,124,1,1,surveys\Slide10.bmp,2890,TRUE
21,1,1,145,125,57,SPACE,surveys\Slide11.bmp,6681,TRUE
21,1,1,146,126,4,4,surveys\Slide12.bmp,12911,FALSE
21,1,1,147,127,2,2,surveys\Slide13.bmp,6594,FALSE
21,1,1,148,128,1,1,surveys\Slide14.bmp,5676,TRUE
21,1,1,149,129,2,2,surveys\Slide15.bmp,5701,FALSE
21,1,1,150,130,2,2,surveys\Slide16.bmp,5354,FALSE
21,1,1,151,131,3,3,surveys\Slide17.bmp,11065,FALSE
21,1,1,152,132,5,5,surveys\Slide18.bmp,12717,FALSE
21,1,1,153,133,2,2,surveys\Slide19.bmp,8776,FALSE
21,1,1,154,134,3,3,surveys\Slide20.bmp,10254,FALSE
21,1,1,155,135,3,3,surveys\Slide21.bmp,22830,FALSE
21,1,1,156,136,57,SPACE,surveys\Slide22.bmp,4400,TRUE
21,1,1,157,137,6,6,surveys\Slide23.bmp,17176,FALSE
21,1,1,158,138,6,6,surveys\Slide24.bmp,27632,FALSE
21,1,1,159,139,5,5,surveys\Slide25.bmp,15403,FALSE
21,1,1,160,140,6,6,surveys\Slide26.bmp,6949,FALSE
21,1,1,161,141,5,5,surveys\Slide27.bmp,7342,FALSE
21,1,1,162,142,3,3,surveys\Slide28.bmp,6165,FALSE
21,1,1,163,143,2,2,surveys\Slide29.bmp,8042,FALSE
21,1,1,164,144,5,5,surveys\Slide30.bmp,16536,FALSE
21,1,1,165,145,2,2,surveys\Slide31.bmp,12513,FALSE
21,1,1,166,146,57,SPACE,surveys\Slide32.bmp,1898,TRUE
21,1,1,167,147,-1,19,What is your age (in years)?,6529,TRUE
21,1,1,168,148,2,2,surveys\Slide34.bmp,2406,FALSE
21,1,1,169,149,4,4,surveys\Slide35.bmp,3115,FALSE
21,1,1,170,150,2,2,surveys\Slide36.bmp,1594,FALSE
21,1,1,178,151,57,SPACE,Please see experimenter,2346555,TRUE
22,1,1,1,1,57,SPACE,Please wait for instructions,71872,TRUE
22,1,1,2,2,1,1,instructionfollowup\Slide1.bmp,8434,TRUE
22,1,1,3,3,9,9,instructionfollowup\Slide2.bmp,627,FALSE
22,1,1,3,4,1,1,instructionfollowup\Slide3.bmp,3450,TRUE
22,1,1,4,15,9,9,mfaces\Slide1.bmp,1703,FALSE
22,1,1,5,19,9,9,mfaces\Slide2.bmp,1618,FALSE
22,1,1,6,10,1,1,mfaces\Slide3.bmp,1458,TRUE
22,1,1,7,11,1,1,mfaces\Slide4.bmp,1356,TRUE
22,1,1,8,23,9,9,mfaces\Slide5.bmp,1742,FALSE
22,1,1,9,22,1,1,mfaces\Slide6.bmp,1610,TRUE
22,1,1,10,14,9,9,mfaces\Slide7.bmp,1357,FALSE
22,1,1,11,9,1,1,mfaces\Slide8.bmp,1545,TRUE
22,1,1,12,6,9,9,mfaces\Slide9.bmp,1373,FALSE
22,1,1,13,24,1,1,mfaces\Slide10.bmp,1600,TRUE
22,1,1,14,13,1,1,mfaces\Slide11.bmp,1292,TRUE
22,1,1,15,12,9,9,mfaces\Slide12.bmp,1881,FALSE
22,1,1,16,7,1,1,mfaces\Slide13.bmp,1742,TRUE
22,1,1,17,18,9,9,mfaces\Slide14.bmp,1559,FALSE
22,1,1,18,20,1,1,mfaces\Slide15.bmp,1375,TRUE
22,1,1,19,21,9,9,mfaces\Slide16.bmp,1244,FALSE
22,1,1,20,5,1,1,mfaces\Slide17.bmp,1339,TRUE
22,1,1,21,16,1,1,mfaces\Slide18.bmp,1755,TRUE
22,1,1,22,8,1,1,mfaces\Slide19.bmp,1764,TRUE
22,1,1,23,17,9,9,mfaces\Slide20.bmp,1563,FALSE
22,1,1,26,25,1,1,instructionfollowup\Slide4.bmp,1869,TRUE
22,1,1,2,50,1,1,instructionfollowup\Slide5.bmp,6141,TRUE
22,1,1,51,59,9,9,mfaces\Slide1.bmp,1376,FALSE
22,1,1,52,65,1,1,mfaces\Slide2.bmp,1752,TRUE
22,1,1,53,60,1,1,mfaces\Slide3.bmp,1848,TRUE
22,1,1,54,64,1,1,mfaces\Slide4.bmp,1537,TRUE
22,1,1,55,70,9,9,mfaces\Slide5.bmp,1485,FALSE
22,1,1,56,66,1,1,mfaces\Slide6.bmp,1237,TRUE
22,1,1,57,54,9,9,mfaces\Slide7.bmp,1401,FALSE
22,1,1,58,51,-1,-1,mfaces\Slide8.bmp,2001,FALSE
22,1,1,59,62,9,9,mfaces\Slide9.bmp,1042,FALSE
22,1,1,60,68,1,1,mfaces\Slide10.bmp,1476,TRUE
22,1,1,61,53,1,1,mfaces\Slide11.bmp,1020,TRUE
22,1,1,62,69,9,9,mfaces\Slide12.bmp,1791,FALSE
22,1,1,63,56,1,1,mfaces\Slide13.bmp,1088,TRUE
22,1,1,64,63,9,9,mfaces\Slide14.bmp,1270,FALSE
22,1,1,65,55,1,1,mfaces\Slide15.bmp,1012,TRUE
22,1,1,66,58,9,9,mfaces\Slide16.bmp,1401,FALSE
22,1,1,67,61,9,9,mfaces\Slide17.bmp,1873,FALSE
22,1,1,68,67,9,9,mfaces\Slide18.bmp,1525,FALSE
22,1,1,69,57,1,1,mfaces\Slide19.bmp,1206,TRUE
22,1,1,70,52,9,9,mfaces\Slide20.bmp,1263,FALSE
22,1,1,26,71,31,S,instructionfollowup\Slide4.bmp,3689,TRUE
22,1,1,135,96,57,SPACE,instructionfollowup\Slide8.bmp,46600,TRUE
22,1,1,119,99,2,2,Slide32.bmp,122,FALSE
22,1,1,122,102,9,9,Slide32.bmp,1418,FALSE
22,1,1,125,105,4,4,Slide32.bmp,867,FALSE
22,1,1,128,108,8,8,Slide32.bmp,2242,FALSE
22,1,1,131,111,2,2,Slide32.bmp,953,FALSE
22,1,1,134,114,1,1,Slide32.bmp,316,TRUE
22,1,1,135,115,35,H,instructionfollowup\Slide9.bmp,2118,TRUE
22,1,1,136,116,34,G,surveys\Slide2.bmp,12349,TRUE
22,1,1,137,117,1,1,surveys\Slide3.bmp,1516,TRUE
22,1,1,138,118,1,1,surveys\Slide4.bmp,1186,TRUE
22,1,1,139,119,1,1,surveys\Slide5.bmp,1178,TRUE
22,1,1,140,120,1,1,surveys\Slide6.bmp,801,TRUE
22,1,1,141,121,1,1,surveys\Slide7.bmp,1036,TRUE
22,1,1,142,122,1,1,surveys\Slide8.bmp,835,TRUE
22,1,1,143,123,1,1,surveys\Slide9.bmp,688,TRUE
22,1,1,144,124,2,2,surveys\Slide10.bmp,3317,FALSE
22,1,1,145,125,1,1,surveys\Slide11.bmp,12812,TRUE
22,1,1,146,126,6,6,surveys\Slide12.bmp,13655,FALSE
22,1,1,147,127,3,3,surveys\Slide13.bmp,7852,FALSE
22,1,1,148,128,6,6,surveys\Slide14.bmp,4245,FALSE
22,1,1,149,129,2,2,surveys\Slide15.bmp,10470,FALSE
22,1,1,150,130,1,1,surveys\Slide16.bmp,4427,TRUE
22,1,1,151,131,3,3,surveys\Slide17.bmp,5915,FALSE
22,1,1,152,132,4,4,surveys\Slide18.bmp,8426,FALSE
22,1,1,153,133,5,5,surveys\Slide19.bmp,7744,FALSE
22,1,1,154,134,7,7,surveys\Slide20.bmp,6349,FALSE
22,1,1,155,135,4,4,surveys\Slide21.bmp,8810,FALSE
22,1,1,156,136,6,6,surveys\Slide22.bmp,5796,TRUE
22,1,1,157,137,1,1,surveys\Slide23.bmp,9454,TRUE
22,1,1,158,138,1,1,surveys\Slide24.bmp,3949,TRUE
22,1,1,159,139,1,1,surveys\Slide25.bmp,5355,TRUE
22,1,1,160,140,2,2,surveys\Slide26.bmp,10490,FALSE
22,1,1,161,141,1,1,surveys\Slide27.bmp,7958,TRUE
22,1,1,162,142,7,7,surveys\Slide28.bmp,4231,FALSE
22,1,1,163,143,4,4,surveys\Slide29.bmp,8147,FALSE
22,1,1,164,144,1,1,surveys\Slide30.bmp,12492,TRUE
22,1,1,165,145,1,1,surveys\Slide31.bmp,4784,TRUE
22,1,1,166,146,6,6,surveys\Slide32.bmp,2261,TRUE
22,1,1,167,147,-1,18,What is your age (in years)?,3959,TRUE
22,1,1,168,148,1,1,surveys\Slide34.bmp,2023,TRUE
22,1,1,169,149,1,1,surveys\Slide35.bmp,2780,TRUE
22,1,1,170,150,1,1,surveys\Slide36.bmp,1555,TRUE
22,1,1,178,151,57,SPACE,Please see experimenter,7609670,TRUE
23,1,1,1,1,57,SPACE,Please wait for instructions,54894,TRUE
23,1,1,2,2,57,SPACE,instructionfollowup\Slide1.bmp,12823,TRUE
23,1,1,3,3,9,9,instructionfollowup\Slide2.bmp,1406,FALSE
23,1,1,3,4,57,SPACE,instructionfollowup\Slide3.bmp,1619,TRUE
23,1,1,4,21,1,1,mfaces\Slide1.bmp,894,TRUE
23,1,1,5,20,1,1,mfaces\Slide2.bmp,1072,TRUE
23,1,1,6,8,1,1,mfaces\Slide3.bmp,1166,TRUE
23,1,1,7,23,1,1,mfaces\Slide4.bmp,911,TRUE
23,1,1,8,22,9,9,mfaces\Slide5.bmp,687,FALSE
23,1,1,9,12,1,1,mfaces\Slide6.bmp,1250,TRUE
23,1,1,10,5,9,9,mfaces\Slide7.bmp,1661,FALSE
23,1,1,11,6,1,1,mfaces\Slide8.bmp,1247,TRUE
23,1,1,12,16,1,1,mfaces\Slide9.bmp,1653,TRUE
23,1,1,13,7,1,1,mfaces\Slide10.bmp,1214,TRUE
23,1,1,14,14,1,1,mfaces\Slide11.bmp,1613,TRUE
23,1,1,15,13,9,9,mfaces\Slide12.bmp,1738,FALSE
23,1,1,16,10,1,1,mfaces\Slide13.bmp,1246,TRUE
23,1,1,17,19,9,9,mfaces\Slide14.bmp,1756,FALSE
23,1,1,18,9,1,1,mfaces\Slide15.bmp,1062,TRUE
23,1,1,19,15,9,9,mfaces\Slide16.bmp,1699,FALSE
23,1,1,20,18,1,1,mfaces\Slide17.bmp,938,TRUE
23,1,1,21,17,-1,-1,mfaces\Slide18.bmp,2001,FALSE
23,1,1,22,11,1,1,mfaces\Slide19.bmp,1158,TRUE
23,1,1,23,24,9,9,mfaces\Slide20.bmp,1029,FALSE
23,1,1,26,25,57,SPACE,instructionfollowup\Slide4.bmp,3538,TRUE
23,1,1,2,50,57,SPACE,instructionfollowup\Slide5.bmp,5428,TRUE
23,1,1,51,52,9,9,mfaces\Slide1.bmp,737,FALSE
23,1,1,52,56,1,1,mfaces\Slide2.bmp,874,TRUE
23,1,1,53,57,9,9,mfaces\Slide3.bmp,1333,FALSE
23,1,1,54,68,1,1,mfaces\Slide4.bmp,948,TRUE
23,1,1,55,64,9,9,mfaces\Slide5.bmp,1034,FALSE
23,1,1,56,53,1,1,mfaces\Slide6.bmp,868,TRUE
23,1,1,57,66,9,9,mfaces\Slide7.bmp,1082,FALSE
23,1,1,58,60,1,1,mfaces\Slide8.bmp,1187,TRUE
23,1,1,59,70,9,9,mfaces\Slide9.bmp,604,FALSE
23,1,1,60,51,1,1,mfaces\Slide10.bmp,1010,TRUE
23,1,1,61,69,1,1,mfaces\Slide11.bmp,1066,TRUE
23,1,1,62,59,9,9,mfaces\Slide12.bmp,1402,FALSE
23,1,1,63,58,1,1,mfaces\Slide13.bmp,797,TRUE
23,1,1,64,63,9,9,mfaces\Slide14.bmp,789,FALSE
23,1,1,65,55,1,1,mfaces\Slide15.bmp,742,TRUE
23,1,1,66,54,1,1,mfaces\Slide16.bmp,1643,TRUE
23,1,1,67,61,1,1,mfaces\Slide17.bmp,1077,TRUE
23,1,1,68,62,9,9,mfaces\Slide18.bmp,945,FALSE
23,1,1,69,67,1,1,mfaces\Slide19.bmp,978,TRUE
23,1,1,70,65,9,9,mfaces\Slide20.bmp,1144,FALSE
23,1,1,26,71,57,SPACE,instructionfollowup\Slide4.bmp,2064,TRUE
23,1,1,135,96,57,SPACE,instructionfollowup\Slide8.bmp,12177,TRUE
23,1,1,119,99,1,1,Slide32.bmp,908,TRUE
23,1,1,122,102,9,9,Slide32.bmp,521,FALSE
23,1,1,125,105,1,1,Slide32.bmp,345,TRUE
23,1,1,128,108,5,5,Slide32.bmp,388,FALSE
23,1,1,131,111,1,1,Slide32.bmp,355,TRUE
23,1,1,134,114,1,1,Slide32.bmp,279,TRUE
23,1,1,135,115,57,SPACE,instructionfollowup\Slide9.bmp,1906,TRUE
23,1,1,136,116,57,SPACE,surveys\Slide2.bmp,8686,TRUE
23,1,1,137,117,1,1,surveys\Slide3.bmp,1960,TRUE
23,1,1,138,118,1,1,surveys\Slide4.bmp,2265,TRUE
23,1,1,139,119,1,1,surveys\Slide5.bmp,703,TRUE
23,1,1,140,120,1,1,surveys\Slide6.bmp,879,TRUE
23,1,1,141,121,1,1,surveys\Slide7.bmp,955,TRUE
23,1,1,142,122,1,1,surveys\Slide8.bmp,1210,TRUE
23,1,1,143,123,1,1,surveys\Slide9.bmp,1269,TRUE
23,1,1,144,124,1,1,surveys\Slide10.bmp,1829,TRUE
23,1,1,145,125,57,SPACE,surveys\Slide11.bmp,6274,TRUE
23,1,1,146,126,4,4,surveys\Slide12.bmp,10335,FALSE
23,1,1,147,127,4,4,surveys\Slide13.bmp,4441,FALSE
23,1,1,148,128,5,5,surveys\Slide14.bmp,7479,FALSE
