Subj,Cond,Block,Trial,Order,Resp,Name,Stim,RT,Correct
1,1,1,1,1,57,SPACE,"Slide1.bmp",40980,True
1,1,1,2,2,37,K,"Slide2.bmp",50385,True
1,1,1,3,3,37,K,"Slide3.bmp",2327,True
1,1,1,4,4,38,L,"Slide4.bmp",22444,True
1,1,1,5,5,38,L,"Slide5.bmp",1908,True
1,1,1,6,6,9,9,"Slide6.bmp",16569,False
1,1,1,7,7,3,3,"Slide7.bmp",5042,False
1,1,1,8,8,1,1,"Slide8.bmp",5255,True
1,1,1,9,9,37,K,"Slide9.bmp",1660,True
1,1,1,10,10,51,COMMA,"Slide10.bmp",4693,True
1,1,1,11,143,6,6,"Slide11.bmp",2521,False
1,1,1,12,144,6,6,"Slide12.bmp",1314,False
1,1,1,13,145,1,1,"Slide13.bmp",1098,True
1,1,1,14,83,6,6,"Slide14.bmp",3798,False
1,1,1,15,84,4,4,"Slide15.bmp",1262,False
1,1,1,16,85,5,5,"Slide16.bmp",242,False
1,1,1,17,188,5,5,"Slide17.bmp",1322,False
1,1,1,18,189,5,5,"Slide18.bmp",287,False
1,1,1,19,190,5,5,"Slide19.bmp",89,False
1,1,1,20,35,7,7,"Slide20.bmp",3724,False
1,1,1,21,36,4,4,"Slide21.bmp",1621,False
1,1,1,22,37,1,1,"Slide22.bmp",1024,True
1,1,1,23,164,5,5,"Slide23.bmp",1160,False
1,1,1,24,165,5,5,"Slide24.bmp",27,False
1,1,1,25,166,5,5,"Slide25.bmp",7,False
1,1,1,26,173,4,4,"Slide26.bmp",1866,False
1,1,1,27,174,3,3,"Slide27.bmp",145,False
1,1,1,28,175,2,2,"Slide28.bmp",490,False
1,1,1,29,20,7,7,"Slide29.bmp",3120,False
1,1,1,30,21,4,4,"Slide30.bmp",1258,False
1,1,1,31,22,1,1,"Slide31.bmp",1644,True
1,1,1,32,26,4,4,"Slide32.bmp",2134,False
1,1,1,33,27,6,6,"Slide33.bmp",1924,False
1,1,1,34,28,5,5,"Slide34.bmp",2612,False
1,1,1,35,41,9,9,"Slide35.bmp",1815,False
1,1,1,36,42,3,3,"Slide36.bmp",543,False
1,1,1,37,43,5,5,"Slide37.bmp",920,False
1,1,1,38,101,9,9,"Slide38.bmp",1540,False
1,1,1,39,102,3,3,"Slide39.bmp",2008,False
1,1,1,40,103,5,5,"Slide40.bmp",2207,False
1,1,1,41,203,6,6,"Slide41.bmp",2353,False
1,1,1,42,204,3,3,"Slide42.bmp",165,False
1,1,1,43,205,2,2,"Slide43.bmp",29,False
1,1,1,44,77,7,7,"Slide44.bmp",1783,False
1,1,1,45,78,5,5,"Slide45.bmp",176,False
1,1,1,46,79,3,3,"Slide46.bmp",127,False
1,1,1,47,179,5,5,"Slide47.bmp",1231,False
1,1,1,48,180,5,5,"Slide48.bmp",63,False
1,1,1,49,181,5,5,"Slide49.bmp",55,False
1,1,1,50,71,5,5,"Slide50.bmp",1802,False
1,1,1,51,72,5,5,"Slide51.bmp",35,False
1,1,1,52,73,5,5,"Slide52.bmp",912,False
1,1,1,53,53,9,9,"Slide53.bmp",2793,False
1,1,1,54,54,1,1,"Slide54.bmp",72,True
1,1,1,55,55,1,1,"Slide55.bmp",259,True
1,1,1,56,74,7,7,"Slide56.bmp",1697,False
1,1,1,57,75,5,5,"Slide57.bmp",188,False
1,1,1,58,76,5,5,"Slide58.bmp",48,False
1,1,1,59,122,8,8,"Slide59.bmp",2230,False
1,1,1,60,123,2,2,"Slide60.bmp",310,False
1,1,1,61,124,1,1,"Slide61.bmp",1559,True
1,1,1,62,107,9,9,"Slide62.bmp",1873,False
1,1,1,63,108,1,1,"Slide63.bmp",838,True
1,1,1,64,109,1,1,"Slide64.bmp",411,True
1,1,1,65,14,9,9,"Slide65.bmp",1547,False
1,1,1,66,15,3,3,"Slide66.bmp",3619,False
1,1,1,67,16,1,1,"Slide67.bmp",2428,True
1,1,1,68,113,7,7,"Slide68.bmp",2099,False
1,1,1,69,114,2,2,"Slide69.bmp",5,False
1,1,1,70,115,2,2,"Slide70.bmp",17,False
1,1,1,71,104,9,9,"Slide71.bmp",2278,False
1,1,1,72,105,3,3,"Slide72.bmp",131,False
1,1,1,73,106,2,2,"Slide73.bmp",943,False
1,1,1,74,167,6,6,"Slide74.bmp",1700,False
1,1,1,75,168,6,6,"Slide75.bmp",973,False
1,1,1,76,169,3,3,"Slide76.bmp",69,False
1,1,1,77,140,7,7,"Slide77.bmp",3105,False
1,1,1,78,141,3,3,"Slide78.bmp",1239,False
1,1,1,79,142,2,2,"Slide79.bmp",990,False
1,1,1,80,23,6,6,"Slide80.bmp",2973,False
1,1,1,81,24,1,1,"Slide81.bmp",1061,True
1,1,1,82,25,9,9,"Slide82.bmp",2033,False
1,1,1,83,152,5,5,"Slide83.bmp",1940,False
1,1,1,84,153,5,5,"Slide84.bmp",834,False
1,1,1,85,154,5,5,"Slide85.bmp",417,False
1,1,1,86,62,5,5,"Slide86.bmp",1835,False
1,1,1,87,63,5,5,"Slide87.bmp",52,False
1,1,1,88,64,5,5,"Slide88.bmp",17,False
1,1,1,89,59,9,9,"Slide89.bmp",1795,False
1,1,1,90,60,2,2,"Slide90.bmp",334,False
1,1,1,91,61,1,1,"Slide91.bmp",1091,True
1,1,1,92,116,7,7,"Slide92.bmp",2874,False
1,1,1,93,117,1,1,"Slide93.bmp",147,True
1,1,1,94,118,2,2,"Slide94.bmp",38,False
1,1,1,95,194,4,4,"Slide95.bmp",3736,False
1,1,1,96,195,4,4,"Slide96.bmp",513,False
1,1,1,97,196,3,3,"Slide97.bmp",37,False
1,1,1,98,50,9,9,"Slide98.bmp",1393,False
1,1,1,99,51,1,1,"Slide99.bmp",492,True
1,1,1,100,52,1,1,"Slide100.bmp",890,True
1,1,1,101,191,6,6,"Slide101.bmp",1641,False
1,1,1,102,192,4,4,"Slide102.bmp",182,False
1,1,1,103,193,2,2,"Slide103.bmp",87,False
1,1,1,104,29,9,9,"Slide104.bmp",1637,False
1,1,1,105,30,2,2,"Slide105.bmp",2302,False
1,1,1,106,31,1,1,"Slide106.bmp",1739,True
1,1,1,107,197,7,7,"Slide107.bmp",1785,False
1,1,1,108,198,4,4,"Slide108.bmp",85,False
1,1,1,109,199,3,3,"Slide109.bmp",72,False
1,1,1,110,38,9,9,"Slide110.bmp",2518,False
1,1,1,111,39,3,3,"Slide111.bmp",1408,False
1,1,1,112,40,2,2,"Slide112.bmp",1614,False
1,1,1,113,65,9,9,"Slide113.bmp",1553,False
1,1,1,114,66,2,2,"Slide114.bmp",1309,False
1,1,1,115,67,1,1,"Slide115.bmp",54,True
1,1,1,116,68,9,9,"Slide116.bmp",2021,False
1,1,1,117,69,3,3,"Slide117.bmp",1308,False
1,1,1,118,70,1,1,"Slide118.bmp",567,True
1,1,1,119,149,9,9,"Slide119.bmp",1602,False
1,1,1,120,150,5,5,"Slide120.bmp",105,False
1,1,1,121,151,1,1,"Slide121.bmp",77,True
1,1,1,122,92,9,9,"Slide122.bmp",2409,False
1,1,1,123,93,2,2,"Slide123.bmp",513,False
1,1,1,124,94,1,1,"Slide124.bmp",482,True
1,1,1,125,56,9,9,"Slide125.bmp",2477,False
1,1,1,126,57,5,5,"Slide126.bmp",1534,False
1,1,1,127,58,2,2,"Slide127.bmp",1224,False
1,1,1,128,125,4,4,"Slide128.bmp",2877,False
1,1,1,129,126,2,2,"Slide129.bmp",304,False
1,1,1,130,127,1,1,"Slide130.bmp",450,True
1,1,1,131,86,9,9,"Slide131.bmp",1932,False
1,1,1,132,87,1,1,"Slide132.bmp",287,True
1,1,1,133,88,1,1,"Slide133.bmp",39,True
1,1,1,134,161,9,9,"Slide134.bmp",1480,False
1,1,1,135,162,2,2,"Slide135.bmp",1150,False
1,1,1,136,163,1,1,"Slide136.bmp",56,True
1,1,1,137,44,9,9,"Slide137.bmp",2419,False
1,1,1,138,45,4,4,"Slide138.bmp",140,False
1,1,1,139,46,7,7,"Slide139.bmp",82,False
1,1,1,140,200,5,5,"Slide140.bmp",1521,False
1,1,1,141,201,5,5,"Slide141.bmp",42,False
1,1,1,142,202,5,5,"Slide142.bmp",93,False
1,1,1,143,98,5,5,"Slide143.bmp",1731,False
1,1,1,144,99,5,5,"Slide144.bmp",55,False
1,1,1,145,100,5,5,"Slide145.bmp",92,False
1,1,1,146,80,5,5,"Slide146.bmp",2219,False
1,1,1,147,81,9,9,"Slide147.bmp",2165,False
1,1,1,148,82,9,9,"Slide148.bmp",1605,False
1,1,1,149,158,5,5,"Slide149.bmp",1453,False
1,1,1,150,159,5,5,"Slide150.bmp",29,False
1,1,1,151,160,5,5,"Slide151.bmp",86,False
1,1,1,152,95,5,5,"Slide152.bmp",2789,False
1,1,1,153,96,4,4,"Slide153.bmp",56,False
1,1,1,154,97,5,5,"Slide154.bmp",43,False
1,1,1,155,119,8,8,"Slide155.bmp",1810,False
1,1,1,156,120,8,8,"Slide156.bmp",1421,False
1,1,1,157,121,9,9,"Slide157.bmp",1248,False
1,1,1,158,137,5,5,"Slide158.bmp",1603,False
1,1,1,159,138,5,5,"Slide159.bmp",37,False
1,1,1,160,139,5,5,"Slide160.bmp",54,False
1,1,1,161,89,5,5,"Slide161.bmp",1776,False
1,1,1,162,90,5,5,"Slide162.bmp",60,False
1,1,1,163,91,5,5,"Slide163.bmp",184,False
1,1,1,164,176,9,9,"Slide164.bmp",1272,False
1,1,1,165,177,2,2,"Slide165.bmp",1053,False
1,1,1,166,178,2,2,"Slide166.bmp",129,False
1,1,1,167,17,8,8,"Slide167.bmp",1726,False
1,1,1,168,18,4,4,"Slide168.bmp",1155,False
1,1,1,169,19,1,1,"Slide169.bmp",2564,True
1,1,1,170,170,9,9,"Slide170.bmp",2102,False
1,1,1,171,171,2,2,"Slide171.bmp",743,False
1,1,1,172,172,1,1,"Slide172.bmp",373,True
1,1,1,173,134,9,9,"Slide173.bmp",1958,False
1,1,1,174,135,2,2,"Slide174.bmp",1690,False
1,1,1,175,136,1,1,"Slide175.bmp",1595,True
1,1,1,176,32,9,9,"Slide176.bmp",1594,False
1,1,1,177,33,1,1,"Slide177.bmp",149,True
1,1,1,178,34,1,1,"Slide178.bmp",2091,True
1,1,1,179,185,9,9,"Slide179.bmp",1485,False
1,1,1,180,186,1,1,"Slide180.bmp",43,True
1,1,1,181,187,1,1,"Slide181.bmp",56,True
1,1,1,182,146,8,8,"Slide182.bmp",2395,False
1,1,1,183,147,3,3,"Slide183.bmp",1911,False
1,1,1,184,148,1,1,"Slide184.bmp",513,True
1,1,1,185,131,8,8,"Slide185.bmp",1530,False
1,1,1,186,132,9,9,"Slide186.bmp",316,False
1,1,1,187,133,1,1,"Slide187.bmp",1171,True
1,1,1,188,128,9,9,"Slide188.bmp",1085,False
1,1,1,189,129,1,1,"Slide189.bmp",87,True
1,1,1,190,130,1,1,"Slide190.bmp",12,True
1,1,1,191,47,9,9,"Slide191.bmp",1808,False
1,1,1,192,48,2,2,"Slide192.bmp",102,False
1,1,1,193,49,2,2,"Slide193.bmp",913,False
1,1,1,194,11,9,9,"Slide194.bmp",2451,False
1,1,1,195,12,2,2,"Slide195.bmp",5629,False
1,1,1,196,13,1,1,"Slide196.bmp",2779,True
1,1,1,197,182,9,9,"Slide197.bmp",1857,False
1,1,1,198,183,1,1,"Slide198.bmp",65,True
1,1,1,199,184,1,1,"Slide199.bmp",362,True
1,1,1,200,155,9,9,"Slide200.bmp",1660,False
1,1,1,201,156,1,1,"Slide201.bmp",33,True
1,1,1,202,157,1,1,"Slide202.bmp",448,True
1,1,1,203,110,7,7,"Slide203.bmp",2169,False
1,1,1,204,111,2,2,"Slide204.bmp",58,False
1,1,1,205,112,2,2,"Slide205.bmp",886,False
1,1,1,206,206,9,9,"Slide206.bmp",1611,False
1,1,1,207,207,9,9,"Slide207.bmp",1859,False
1,1,1,208,208,9,9,"Slide208.bmp",1125,False
1,1,1,209,209,8,8,"Slide209.bmp",2545,False
1,1,1,210,210,5,5,"Slide210.bmp",668,False
1,1,1,211,211,5,5,"Slide211.bmp",349,False
1,1,1,212,212,9,9,"Slide212.bmp",2302,False
1,1,1,213,213,8,8,"Slide213.bmp",255,False
1,1,1,214,214,8,8,"Slide214.bmp",262,False
1,1,1,215,215,8,8,"Slide215.bmp",3105,False
1,1,1,216,216,9,9,"Slide216.bmp",1116,False
1,1,1,217,217,9,9,"Slide217.bmp",726,False
1,1,1,218,218,7,7,"Slide218.bmp",1551,False
1,1,1,219,219,6,6,"Slide219.bmp",2479,False
1,1,1,220,220,5,5,"Slide220.bmp",1347,False
1,1,1,221,221,4,4,"Slide221.bmp",5748,False
1,1,1,222,222,3,3,"Slide222.bmp",2336,False
1,1,1,223,223,2,2,"Slide223.bmp",1536,False
1,1,1,224,224,57,SPACE,"Slide224.bmp",13947,True
Subj,Cond,Block,Trial,Order,Resp,Name,Stim,RT,Correct
10,1,1,1,1,28,ENTER,"Slide1.bmp",42231,True
10,1,1,2,2,28,ENTER,"Slide2.bmp",21543,True
10,1,1,3,3,57,SPACE,"Slide3.bmp",20399,True
10,1,1,4,4,57,SPACE,"Slide4.bmp",12556,True
10,1,1,5,5,2,2,"b1.bmp",10045,True
10,1,1,6,6,57,SPACE,"Slide5.bmp",1304,True
10,1,1,7,7,2,2,"b2.bmp",5556,False
10,1,1,8,8,4,4,"Slide6.bmp",9230,False
10,1,1,9,9,1,1,"Slide7.bmp",2448,True
10,1,1,10,10,9,9,"Slide8.bmp",5272,False
10,1,1,11,11,28,ENTER,"Slide9.bmp",4918,True
10,1,1,12,12,28,ENTER,"Slide10.bmp",6737,True
10,1,1,13,89,1,1,"b3.bmp",1710,True
10,1,1,14,90,4,4,"Slide11.bmp",2001,False
10,1,1,15,91,1,1,"Slide12.bmp",763,True
10,1,1,16,92,7,7,"Slide13.bmp",1018,False
10,1,1,17,111,2,2,"b4.bmp",2325,False
10,1,1,18,112,9,9,"Slide14.bmp",1266,False
10,1,1,19,113,4,4,"Slide15.bmp",1744,False
10,1,1,20,114,1,1,"Slide16.bmp",3328,True
10,1,1,21,30,2,2,"b5.bmp",3089,False
10,1,1,22,31,4,4,"Slide17.bmp",4324,False
10,1,1,23,32,3,3,"Slide18.bmp",1635,False
10,1,1,24,33,5,5,"Slide19.bmp",2464,False
10,1,1,29,119,1,1,"b7.bmp",3735,True
10,1,1,30,120,5,5,"Slide23.bmp",2100,False
10,1,1,31,121,5,5,"Slide24.bmp",1151,False
10,1,1,32,122,5,5,"Slide25.bmp",439,False
10,1,1,37,23,2,2,"b9.bmp",6543,False
10,1,1,38,24,5,5,"Slide29.bmp",1621,False
10,1,1,39,25,3,3,"Slide30.bmp",1428,False
10,1,1,40,26,5,5,"Slide31.bmp",1394,False
10,1,1,41,103,2,2,"b10.bmp",1741,False
10,1,1,42,104,1,1,"Slide32.bmp",1351,True
10,1,1,43,105,1,1,"Slide33.bmp",474,True
10,1,1,44,106,9,9,"Slide34.bmp",1269,False
10,1,1,53,107,1,1,"b13.bmp",4015,True
10,1,1,54,108,9,9,"Slide41.bmp",1539,False
10,1,1,55,109,2,2,"Slide42.bmp",1859,False
10,1,1,56,110,3,3,"Slide43.bmp",2285,False
10,1,1,61,52,1,1,"b15.bmp",2567,True
10,1,1,62,53,5,5,"Slide47.bmp",1498,False
10,1,1,63,54,5,5,"Slide48.bmp",927,False
10,1,1,64,55,5,5,"Slide49.bmp",2158,False
10,1,1,65,19,2,2,"b16.bmp",2947,False
10,1,1,66,20,4,4,"Slide50.bmp",4535,False
10,1,1,67,21,3,3,"Slide51.bmp",1415,False
10,1,1,68,22,5,5,"Slide52.bmp",2467,False
10,1,1,69,123,2,2,"b17.bmp",7294,False
10,1,1,70,124,6,6,"Slide53.bmp",2159,False
10,1,1,71,125,5,5,"Slide54.bmp",2573,False
10,1,1,72,126,9,9,"Slide55.bmp",1596,False
10,1,1,73,115,1,1,"b18.bmp",3082,True
10,1,1,74,116,1,1,"Slide56.bmp",286,True
10,1,1,75,117,1,1,"Slide57.bmp",736,True
10,1,1,76,118,9,9,"Slide58.bmp",281,False
10,1,1,81,82,1,1,"b20.bmp",8772,True
10,1,1,82,83,9,9,"Slide62.bmp",1174,False
10,1,1,83,84,2,2,"Slide63.bmp",1514,False
10,1,1,84,85,2,2,"Slide64.bmp",2057,False
10,1,1,85,56,1,1,"b21.bmp",3971,True
10,1,1,86,57,1,1,"Slide65.bmp",1792,True
10,1,1,87,58,1,1,"Slide66.bmp",1057,True
10,1,1,88,59,9,9,"Slide67.bmp",1123,False
10,1,1,97,74,1,1,"b24.bmp",5158,True
10,1,1,98,75,1,1,"Slide74.bmp",996,True
10,1,1,99,76,1,1,"Slide75.bmp",536,True
10,1,1,100,77,9,9,"Slide76.bmp",1206,False
10,1,1,109,133,2,2,"b27.bmp",2013,False
10,1,1,110,134,5,5,"Slide83.bmp",2267,False
10,1,1,111,135,4,4,"Slide84.bmp",384,False
10,1,1,112,136,5,5,"Slide85.bmp",1068,False
10,1,1,117,67,2,2,"b29.bmp",2050,False
10,1,1,118,68,1,1,"Slide89.bmp",2175,True
10,1,1,119,69,1,1,"Slide90.bmp",3052,True
10,1,1,120,70,9,9,"Slide91.bmp",1312,False
10,1,1,133,78,2,2,"b33.bmp",5496,False
10,1,1,134,79,8,8,"Slide101.bmp",1354,False
10,1,1,135,80,3,3,"Slide102.bmp",936,False
10,1,1,136,81,4,4,"Slide103.bmp",1991,False
10,1,1,137,93,1,1,"b34.bmp",14836,True
10,1,1,138,94,7,7,"Slide104.bmp",3262,False
10,1,1,139,95,3,3,"Slide105.bmp",2649,False
10,1,1,140,96,9,9,"Slide106.bmp",1754,False
10,1,1,141,60,1,1,"b35.bmp",5279,True
10,1,1,142,61,9,9,"Slide107.bmp",1329,False
10,1,1,143,62,1,1,"Slide108.bmp",1665,True
10,1,1,144,63,3,3,"Slide109.bmp",2195,False
10,1,1,153,140,0,,"",0,False
10,1,1,157,37,8,8,"Slide119.bmp",6581,False
10,1,1,158,38,2,2,"Slide120.bmp",3710,False
10,1,1,159,39,6,6,"Slide121.bmp",9355,False
10,1,1,163,49,6,6,"Slide125.bmp",2929,False
10,1,1,164,50,3,3,"Slide126.bmp",2169,False
10,1,1,165,51,4,4,"Slide127.bmp",3176,False
10,1,1,169,137,9,9,"Slide131.bmp",1131,False
10,1,1,170,138,3,3,"Slide132.bmp",598,False
10,1,1,171,139,7,7,"Slide133.bmp",1382,False
10,1,1,172,130,9,9,"Slide134.bmp",4464,False
10,1,1,173,131,2,2,"Slide135.bmp",1539,False
10,1,1,174,132,5,5,"Slide136.bmp",1414,False
10,1,1,181,16,4,4,"Slide143.bmp",3353,False
10,1,1,182,17,7,7,"Slide144.bmp",2647,False
10,1,1,183,18,5,5,"Slide145.bmp",2673,False
10,1,1,184,27,4,4,"Slide146.bmp",2329,False
10,1,1,185,28,9,9,"Slide147.bmp",2474,False
10,1,1,186,29,9,9,"Slide148.bmp",1901,False
10,1,1,193,64,5,5,"Slide155.bmp",2032,False
10,1,1,194,65,5,5,"Slide156.bmp",460,False
10,1,1,195,66,5,5,"Slide157.bmp",817,False
10,1,1,196,127,5,5,"Slide158.bmp",3074,False
10,1,1,197,128,9,9,"Slide159.bmp",776,False
10,1,1,198,129,5,5,"Slide160.bmp",700,False
10,1,1,199,40,5,5,"Slide161.bmp",2561,False
10,1,1,200,41,9,9,"Slide162.bmp",628,False
10,1,1,201,42,5,5,"Slide163.bmp",1830,False
10,1,1,202,43,9,9,"Slide164.bmp",2156,False
10,1,1,203,44,1,1,"Slide165.bmp",1526,True
10,1,1,204,45,3,3,"Slide166.bmp",4521,False
10,1,1,205,86,9,9,"Slide167.bmp",2077,False
10,1,1,206,87,1,1,"Slide168.bmp",2401,True
10,1,1,207,88,1,1,"Slide169.bmp",1619,True
10,1,1,208,34,8,8,"Slide170.bmp",3212,False
10,1,1,209,35,2,2,"Slide171.bmp",3826,False
10,1,1,210,36,3,3,"Slide172.bmp",2067,False
10,1,1,223,46,9,9,"Slide185.bmp",2838,False
10,1,1,224,47,3,3,"Slide186.bmp",2570,False
10,1,1,225,48,5,5,"Slide187.bmp",2183,False
10,1,1,226,100,9,9,"Slide188.bmp",2779,False
10,1,1,227,101,4,4,"Slide189.bmp",2428,False
10,1,1,228,102,5,5,"Slide190.bmp",1225,False
10,1,1,229,97,5,5,"Slide191.bmp",2672,False
10,1,1,230,98,9,9,"Slide192.bmp",1333,False
10,1,1,231,99,5,5,"Slide193.bmp",935,False
10,1,1,238,13,7,7,"Slide200.bmp",2836,False
10,1,1,239,14,6,6,"Slide201.bmp",3651,False
10,1,1,240,15,4,4,"Slide202.bmp",3723,False
10,1,1,241,71,3,3,"Slide203.bmp",7940,False
10,1,1,242,72,1,1,"Slide204.bmp",478,True
10,1,1,243,73,9,9,"Slide205.bmp",1168,False
Subj,Cond,Block,Trial,Order,Resp,Name,Stim,RT,Correct
11,1,1,1,1,1,1,"Slide1.bmp",38126,True
11,1,1,2,2,6,6,"Slide2.bmp",30930,True
11,1,1,3,3,9,9,"Slide3.bmp",7933,True
11,1,1,4,4,8,8,"Slide4.bmp",198,True
11,1,1,5,5,2,2,"b1.bmp",12310,True
11,1,1,6,6,1,1,"Slide5.bmp",1291,True
11,1,1,7,7,2,2,"b2.bmp",3105,False
11,1,1,8,8,7,7,"Slide6.bmp",6317,False
11,1,1,9,9,5,5,"Slide7.bmp",4207,False
11,1,1,10,10,1,1,"Slide8.bmp",3375,True
11,1,1,11,11,28,ENTER,"Slide9.bmp",6654,True
11,1,1,12,12,28,ENTER,"Slide10.bmp",2508,True
11,1,1,13,82,1,1,"b3.bmp",2290,True
11,1,1,14,83,6,6,"Slide11.bmp",2793,False
11,1,1,15,84,6,6,"Slide12.bmp",628,False
11,1,1,16,85,6,6,"Slide13.bmp",273,False
11,1,1,17,33,2,2,"b4.bmp",3933,False
11,1,1,18,34,1,1,"Slide14.bmp",1235,True
11,1,1,19,35,1,1,"Slide15.bmp",1559,True
11,1,1,20,36,9,9,"Slide16.bmp",2111,False
11,1,1,21,78,1,1,"b5.bmp",4317,True
11,1,1,22,79,1,1,"Slide17.bmp",439,True
11,1,1,23,80,8,8,"Slide18.bmp",1076,False
11,1,1,24,81,1,1,"Slide19.bmp",470,True
11,1,1,25,70,1,1,"b6.bmp",2202,True
11,1,1,26,71,2,2,"Slide20.bmp",1063,False
11,1,1,27,72,8,8,"Slide21.bmp",79,False
11,1,1,28,73,4,4,"Slide22.bmp",251,False
11,1,1,29,128,2,2,"b7.bmp",2960,False
11,1,1,30,129,6,6,"Slide23.bmp",31,False
11,1,1,31,130,7,7,"Slide24.bmp",126,False
11,1,1,32,131,5,5,"Slide25.bmp",74,False
11,1,1,33,62,2,2,"b8.bmp",2148,False
11,1,1,34,63,8,8,"Slide26.bmp",2032,False
11,1,1,35,64,3,3,"Slide27.bmp",1560,False
11,1,1,36,65,7,7,"Slide28.bmp",278,False
11,1,1,37,192,2,2,"b9.bmp",765,False
11,1,1,38,193,8,8,"Slide29.bmp",158,False
11,1,1,39,194,5,5,"Slide30.bmp",79,False
11,1,1,40,195,7,7,"Slide31.bmp",689,False
11,1,1,45,20,1,1,"b11.bmp",2712,True
11,1,1,46,21,9,9,"Slide35.bmp",1505,False
11,1,1,47,22,1,1,"Slide36.bmp",2107,True
11,1,1,48,23,9,9,"Slide37.bmp",2859,False
11,1,1,49,174,1,1,"b12.bmp",987,True
11,1,1,50,175,7,7,"Slide38.bmp",121,False
11,1,1,51,176,4,4,"Slide39.bmp",481,False
11,1,1,52,177,6,6,"Slide40.bmp",147,False
11,1,1,53,100,1,1,"b13.bmp",1843,True
11,1,1,54,101,9,9,"Slide41.bmp",887,False
11,1,1,55,102,3,3,"Slide42.bmp",760,False
11,1,1,56,103,8,8,"Slide43.bmp",459,False
11,1,1,57,74,2,2,"b14.bmp",1859,False
11,1,1,58,75,9,9,"Slide44.bmp",979,False
11,1,1,59,76,1,1,"Slide45.bmp",401,True
11,1,1,60,77,8,8,"Slide46.bmp",42,False
11,1,1,69,93,1,1,"b17.bmp",2339,True
11,1,1,70,94,9,9,"Slide53.bmp",843,False
11,1,1,71,95,3,3,"Slide54.bmp",1206,False
11,1,1,72,96,1,1,"Slide55.bmp",889,True
11,1,1,73,117,1,1,"b18.bmp",1128,True
11,1,1,74,118,1,1,"Slide56.bmp",712,True
11,1,1,75,119,1,1,"Slide57.bmp",488,True
11,1,1,76,120,9,9,"Slide58.bmp",144,False
11,1,1,77,132,1,1,"b19.bmp",1296,True
11,1,1,78,133,6,6,"Slide59.bmp",660,False
11,1,1,79,134,3,3,"Slide60.bmp",48,False
11,1,1,80,135,8,8,"Slide61.bmp",563,False
11,1,1,81,66,1,1,"b20.bmp",5033,True
11,1,1,82,67,9,9,"Slide62.bmp",1366,False
11,1,1,83,68,1,1,"Slide63.bmp",1060,True
11,1,1,84,69,1,1,"Slide64.bmp",769,True
11,1,1,85,167,1,1,"b21.bmp",517,True
11,1,1,86,168,8,8,"Slide65.bmp",198,False
11,1,1,87,169,8,8,"Slide66.bmp",439,False
11,1,1,88,170,9,9,"Slide67.bmp",5,False
11,1,1,89,181,2,2,"b22.bmp",97,False
11,1,1,90,182,7,7,"Slide68.bmp",243,False
11,1,1,91,183,2,2,"Slide69.bmp",244,False
11,1,1,92,184,3,3,"Slide70.bmp",70,False
11,1,1,93,86,1,1,"b23.bmp",2948,True
11,1,1,94,87,4,4,"Slide71.bmp",1618,False
11,1,1,95,88,2,2,"Slide72.bmp",1002,False
11,1,1,96,89,1,1,"Slide73.bmp",888,True
11,1,1,101,143,1,1,"b25.bmp",1116,True
11,1,1,102,144,9,9,"Slide77.bmp",74,False
11,1,1,103,145,2,2,"Slide78.bmp",7,False
11,1,1,104,146,2,2,"Slide79.bmp",163,False
11,1,1,109,136,2,2,"b27.bmp",1191,False
11,1,1,110,137,3,3,"Slide83.bmp",2590,False
11,1,1,111,138,4,4,"Slide84.bmp",74,False
11,1,1,112,139,3,3,"Slide85.bmp",217,False
11,1,1,113,160,1,1,"b28.bmp",500,True
11,1,1,114,161,1,1,"Slide86.bmp",572,True
11,1,1,115,162,9,9,"Slide87.bmp",431,False
11,1,1,116,163,8,8,"Slide88.bmp",200,False
11,1,1,117,121,2,2,"b29.bmp",1810,False
11,1,1,118,122,6,6,"Slide89.bmp",1773,False
11,1,1,119,123,5,5,"Slide90.bmp",303,False
11,1,1,120,124,5,5,"Slide91.bmp",127,False
11,1,1,121,37,2,2,"b30.bmp",2666,False
11,1,1,122,38,5,5,"Slide92.bmp",2286,False
11,1,1,123,39,1,1,"Slide93.bmp",1134,True
11,1,1,124,40,9,9,"Slide94.bmp",1761,False
11,1,1,125,188,1,1,"b31.bmp",265,True
11,1,1,126,189,1,1,"Slide95.bmp",212,True
11,1,1,127,190,1,1,"Slide96.bmp",515,True
11,1,1,128,191,7,7,"Slide97.bmp",141,False
11,1,1,129,150,1,1,"b32.bmp",788,True
11,1,1,130,151,1,1,"Slide98.bmp",112,True
11,1,1,131,152,1,1,"Slide99.bmp",45,True
11,1,1,132,153,1,1,"Slide100.bmp",1142,True
11,1,1,133,196,1,1,"b33.bmp",1494,True
11,1,1,134,197,4,4,"Slide101.bmp",139,False
11,1,1,135,198,9,9,"Slide102.bmp",179,False
11,1,1,136,199,5,5,"Slide103.bmp",77,False
11,1,1,137,107,2,2,"b34.bmp",2149,False
11,1,1,138,108,9,9,"Slide104.bmp",1378,False
11,1,1,139,109,4,4,"Slide105.bmp",550,False
11,1,1,140,110,7,7,"Slide106.bmp",80,False
11,1,1,145,13,1,1,"b36.bmp",2601,True
11,1,1,146,14,9,9,"Slide110.bmp",2321,False
11,1,1,147,15,3,3,"Slide111.bmp",3465,False
11,1,1,148,16,1,1,"Slide112.bmp",2285,True
11,1,1,153,200,0,,"",0,False
11,1,1,157,185,4,4,"Slide119.bmp",384,False
11,1,1,158,186,2,2,"Slide120.bmp",132,False
11,1,1,159,187,2,2,"Slide121.bmp",346,False
11,1,1,160,27,1,1,"Slide122.bmp",3435,True
11,1,1,161,28,9,9,"Slide123.bmp",1827,False
11,1,1,162,29,1,1,"Slide124.bmp",608,True
11,1,1,166,50,3,3,"Slide128.bmp",3895,False
11,1,1,167,51,4,4,"Slide129.bmp",834,False
11,1,1,168,52,4,4,"Slide130.bmp",503,False
11,1,1,172,47,9,9,"Slide134.bmp",2205,False
11,1,1,173,48,1,1,"Slide135.bmp",2484,True
11,1,1,174,49,1,1,"Slide136.bmp",1425,True
11,1,1,175,24,9,9,"Slide137.bmp",1909,False
11,1,1,176,25,5,5,"Slide138.bmp",2005,False
11,1,1,177,26,7,7,"Slide139.bmp",2136,False
11,1,1,178,41,5,5,"Slide140.bmp",4289,False
11,1,1,179,42,5,5,"Slide141.bmp",329,False
11,1,1,180,43,5,5,"Slide142.bmp",68,False
11,1,1,181,171,4,4,"Slide143.bmp",105,False
11,1,1,182,172,7,7,"Slide144.bmp",303,False
11,1,1,183,173,6,6,"Slide145.bmp",89,False
11,1,1,184,125,5,5,"Slide146.bmp",2694,False
11,1,1,185,126,5,5,"Slide147.bmp",196,False
11,1,1,186,127,5,5,"Slide148.bmp",27,False
11,1,1,187,59,4,4,"Slide149.bmp",2141,False
11,1,1,188,60,5,5,"Slide150.bmp",83,False
11,1,1,189,61,5,5,"Slide151.bmp",158,False
11,1,1,190,157,5,5,"Slide152.bmp",112,False
11,1,1,191,158,5,5,"Slide153.bmp",177,False
11,1,1,192,159,5,5,"Slide154.bmp",40,False
11,1,1,193,154,2,2,"Slide155.bmp",189,False
11,1,1,194,155,4,4,"Slide156.bmp",339,False
11,1,1,195,156,7,7,"Slide157.bmp",188,False
11,1,1,196,30,5,5,"Slide158.bmp",2348,False
11,1,1,197,31,5,5,"Slide159.bmp",337,False
11,1,1,198,32,5,5,"Slide160.bmp",75,False
11,1,1,199,53,5,5,"Slide161.bmp",1621,False
11,1,1,200,54,5,5,"Slide162.bmp",35,False
11,1,1,201,55,5,5,"Slide163.bmp",38,False
11,1,1,202,97,9,9,"Slide164.bmp",2355,False
11,1,1,203,98,2,2,"Slide165.bmp",742,False
11,1,1,204,99,1,1,"Slide166.bmp",288,True
11,1,1,205,56,7,7,"Slide167.bmp",2500,False
11,1,1,206,57,4,4,"Slide168.bmp",1357,False
11,1,1,207,58,5,5,"Slide169.bmp",1885,False
11,1,1,208,44,9,9,"Slide170.bmp",1850,False
11,1,1,209,45,1,1,"Slide171.bmp",1303,True
11,1,1,210,46,1,1,"Slide172.bmp",1536,True
11,1,1,211,140,3,3,"Slide173.bmp",2559,False
11,1,1,212,141,3,3,"Slide174.bmp",2488,False
11,1,1,213,142,3,3,"Slide175.bmp",1579,False
11,1,1,214,147,9,9,"Slide176.bmp",261,False
11,1,1,215,148,2,2,"Slide177.bmp",1099,False
11,1,1,216,149,1,1,"Slide178.bmp",63,True
11,1,1,217,90,9,9,"Slide179.bmp",1450,False
11,1,1,218,91,1,1,"Slide180.bmp",74,True
11,1,1,219,92,1,1,"Slide181.bmp",192,True
11,1,1,223,17,9,9,"Slide185.bmp",2556,False
11,1,1,224,18,1,1,"Slide186.bmp",3693,True
11,1,1,225,19,1,1,"Slide187.bmp",2075,True
11,1,1,226,111,9,9,"Slide188.bmp",987,False
11,1,1,227,112,5,5,"Slide189.bmp",799,False
11,1,1,228,113,8,8,"Slide190.bmp",130,False
11,1,1,229,104,9,9,"Slide191.bmp",1709,False
11,1,1,230,105,5,5,"Slide192.bmp",1063,False
11,1,1,231,106,1,1,"Slide193.bmp",1734,True
11,1,1,232,178,8,8,"Slide194.bmp",566,False
11,1,1,233,179,2,2,"Slide195.bmp",63,False
11,1,1,234,180,2,2,"Slide196.bmp",182,False
11,1,1,235,114,9,9,"Slide197.bmp",2884,False
11,1,1,236,115,4,4,"Slide198.bmp",657,False
11,1,1,237,116,2,2,"Slide199.bmp",872,False
11,1,1,241,164,3,3,"Slide203.bmp",18,False
11,1,1,242,165,8,8,"Slide204.bmp",14,False
11,1,1,243,166,1,1,"Slide205.bmp",192,True
Subj,Cond,Block,Trial,Order,Resp,Name,Stim,RT,Correct
12,1,1,1,1,57,SPACE,"Slide1.bmp",17101,True
12,1,1,2,2,57,SPACE,"Slide2.bmp",7018,True
12,1,1,3,3,1,1,"Slide3.bmp",11165,True
12,1,1,4,4,8,8,"Slide4.bmp",6300,True
12,1,1,5,5,57,SPACE,"b1.bmp",963,True
12,1,1,6,6,57,SPACE,"Slide5.bmp",1025,True
12,1,1,7,7,2,2,"b2.bmp",6860,False
12,1,1,8,8,9,9,"Slide6.bmp",2260,False
12,1,1,9,9,6,6,"Slide7.bmp",3284,False
12,1,1,10,10,5,5,"Slide8.bmp",5428,False
12,1,1,11,11,57,SPACE,"Slide9.bmp",2173,True
12,1,1,12,12,57,SPACE,"Slide10.bmp",3055,True
12,1,1,41,32,1,1,"b10.bmp",3205,True
12,1,1,42,33,7,7,"Slide32.bmp",1786,False
12,1,1,43,34,2,2,"Slide33.bmp",667,False
12,1,1,44,35,9,9,"Slide34.bmp",1579,False
12,1,1,61,13,1,1,"b15.bmp",3517,True
12,1,1,62,14,3,3,"Slide47.bmp",1973,False
12,1,1,63,15,1,1,"Slide48.bmp",1299,True
12,1,1,64,16,1,1,"Slide49.bmp",1298,True
12,1,1,113,25,2,2,"b28.bmp",4031,False
12,1,1,114,26,1,1,"Slide86.bmp",1319,True
12,1,1,115,27,1,1,"Slide87.bmp",6844,True
12,1,1,116,28,1,1,"Slide88.bmp",1167,True
12,1,1,133,21,2,2,"b33.bmp",3634,False
12,1,1,134,22,9,9,"Slide101.bmp",2584,False
12,1,1,135,23,8,8,"Slide102.bmp",1364,False
12,1,1,136,24,9,9,"Slide103.bmp",1066,False
12,1,1,137,17,1,1,"b34.bmp",6628,True
12,1,1,138,18,8,8,"Slide104.bmp",1503,False
12,1,1,139,19,7,7,"Slide105.bmp",2521,False
12,1,1,140,20,6,6,"Slide106.bmp",1591,False
12,1,1,141,51,1,1,"b35.bmp",5941,True
12,1,1,142,52,9,9,"Slide107.bmp",3628,False
12,1,1,143,53,1,1,"Slide108.bmp",1258,True
12,1,1,144,54,9,9,"Slide109.bmp",1135,False
12,1,1,153,55,0,,"",0,False
12,1,1,160,29,9,9,"Slide122.bmp",4838,False
12,1,1,161,30,6,6,"Slide123.bmp",1768,False
12,1,1,162,31,9,9,"Slide124.bmp",2472,False
12,1,1,163,42,9,9,"Slide125.bmp",4561,False
12,1,1,164,43,6,6,"Slide126.bmp",2404,False
12,1,1,165,44,9,9,"Slide127.bmp",6359,False
12,1,1,175,45,9,9,"Slide137.bmp",2576,False
12,1,1,176,46,7,7,"Slide138.bmp",1773,False
12,1,1,177,47,9,9,"Slide139.bmp",1059,False
12,1,1,208,39,9,9,"Slide170.bmp",1522,False
12,1,1,209,40,6,6,"Slide171.bmp",2547,False
12,1,1,210,41,9,9,"Slide172.bmp",1251,False
12,1,1,217,36,9,9,"Slide179.bmp",1471,False
12,1,1,218,37,5,5,"Slide180.bmp",3561,False
12,1,1,219,38,1,1,"Slide181.bmp",3126,True
12,1,1,223,48,9,9,"Slide185.bmp",6970,False
12,1,1,224,49,4,4,"Slide186.bmp",2066,False
12,1,1,225,50,4,4,"Slide187.bmp",4708,False
Subj,Cond,Block,Trial,Order,Resp,Name,Stim,RT,Correct
13,1,1,1,1,1,1,"Slide1.bmp",56462,True
13,1,1,2,2,1,1,"Slide2.bmp",20876,True
13,1,1,3,3,1,1,"Slide3.bmp",7052,True
13,1,1,4,4,1,1,"Slide4.bmp",9241,True
13,1,1,5,5,57,SPACE,"b1.bmp",19475,True
13,1,1,6,6,57,SPACE,"Slide5.bmp",1275,True
13,1,1,7,7,2,2,"b2.bmp",4526,False
13,1,1,8,8,9,9,"Slide6.bmp",4333,False
13,1,1,9,9,1,1,"Slide7.bmp",5306,True
13,1,1,10,10,5,5,"Slide8.bmp",16715,False
13,1,1,11,11,57,SPACE,"Slide9.bmp",4736,True
13,1,1,12,12,57,SPACE,"Slide10.bmp",5065,True
13,1,1,57,20,2,2,"b14.bmp",3572,False
13,1,1,58,21,9,9,"Slide44.bmp",1420,False
13,1,1,59,22,1,1,"Slide45.bmp",1365,True
13,1,1,60,23,1,1,"Slide46.bmp",1856,True
13,1,1,73,43,1,1,"b18.bmp",1818,True
13,1,1,74,44,9,9,"Slide56.bmp",2491,False
13,1,1,75,45,1,1,"Slide57.bmp",5133,True
13,1,1,76,46,1,1,"Slide58.bmp",3275,True
13,1,1,93,31,1,1,"b23.bmp",3347,True
13,1,1,94,32,9,9,"Slide71.bmp",1941,False
13,1,1,95,33,1,1,"Slide72.bmp",1002,True
13,1,1,96,34,1,1,"Slide73.bmp",4105,True
13,1,1,97,39,1,1,"b24.bmp",3476,True
13,1,1,98,40,9,9,"Slide74.bmp",2439,False
13,1,1,99,41,1,1,"Slide75.bmp",1426,True
13,1,1,100,42,1,1,"Slide76.bmp",1674,True
13,1,1,117,27,2,2,"b29.bmp",3239,False
13,1,1,118,28,1,1,"Slide89.bmp",5431,True
13,1,1,119,29,1,1,"Slide90.bmp",753,True
13,1,1,120,30,9,9,"Slide91.bmp",5427,False
13,1,1,121,16,2,2,"b30.bmp",2933,False
13,1,1,122,17,1,1,"Slide92.bmp",2997,True
13,1,1,123,18,1,1,"Slide93.bmp",885,True
13,1,1,124,19,5,5,"Slide94.bmp",5062,False
13,1,1,133,35,2,2,"b33.bmp",4059,False
13,1,1,134,36,9,9,"Slide101.bmp",999,False
13,1,1,135,37,1,1,"Slide102.bmp",1110,True
13,1,1,136,38,1,1,"Slide103.bmp",1674,True
13,1,1,149,47,0,,"",0,False
13,1,1,187,24,9,9,"Slide149.bmp",5406,False
13,1,1,188,25,9,9,"Slide150.bmp",1371,False
13,1,1,189,26,1,1,"Slide151.bmp",2657,True
13,1,1,229,13,9,9,"Slide191.bmp",1819,False
13,1,1,230,14,1,1,"Slide192.bmp",4170,True
13,1,1,231,15,1,1,"Slide193.bmp",2678,True
Subj,Cond,Block,Trial,Order,Resp,Name,Stim,RT,Correct
14,1,1,1,1,57,SPACE,"Slide1.bmp",33718,True
14,1,1,2,2,57,SPACE,"Slide2.bmp",7285,True
14,1,1,3,3,57,SPACE,"Slide3.bmp",1667,True
14,1,1,4,4,57,SPACE,"Slide4.bmp",10874,True
14,1,1,5,5,57,SPACE,"b1.bmp",6446,True
14,1,1,6,6,57,SPACE,"Slide5.bmp",1364,True
14,1,1,7,7,2,2,"b2.bmp",6607,False
14,1,1,8,8,7,7,"Slide6.bmp",4622,False
14,1,1,9,9,4,4,"Slide7.bmp",5632,False
14,1,1,10,10,4,4,"Slide8.bmp",5481,False
14,1,1,11,11,57,SPACE,"Slide9.bmp",28059,True
14,1,1,12,12,57,SPACE,"Slide10.bmp",1578,True
14,1,1,29,39,1,1,"b7.bmp",2832,True
14,1,1,30,40,5,5,"Slide23.bmp",4637,False
14,1,1,31,41,1,1,"Slide24.bmp",1239,True
14,1,1,32,42,7,7,"Slide25.bmp",2209,False
14,1,1,81,35,1,1,"b20.bmp",4116,True
14,1,1,82,36,8,8,"Slide62.bmp",1964,False
14,1,1,83,37,4,4,"Slide63.bmp",4206,False
14,1,1,84,38,5,5,"Slide64.bmp",4316,False
14,1,1,85,13,1,1,"b21.bmp",2657,True
14,1,1,86,14,7,7,"Slide65.bmp",6542,False
14,1,1,87,15,5,5,"Slide66.bmp",2243,False
14,1,1,88,16,2,2,"Slide67.bmp",3030,False
14,1,1,149,43,0,,"",0,False
14,1,1,172,20,9,9,"Slide134.bmp",2466,False
14,1,1,173,21,7,7,"Slide135.bmp",2440,False
14,1,1,174,22,4,4,"Slide136.bmp",3894,False
14,1,1,178,29,3,3,"Slide140.bmp",4723,False
14,1,1,179,30,9,9,"Slide141.bmp",1665,False
14,1,1,180,31,8,8,"Slide142.bmp",1494,False
14,1,1,208,26,8,8,"Slide170.bmp",2019,False
14,1,1,209,27,2,2,"Slide171.bmp",1059,False
14,1,1,210,28,3,3,"Slide172.bmp",2556,False
14,1,1,229,32,8,8,"Slide191.bmp",2526,False
14,1,1,230,33,7,7,"Slide192.bmp",1485,False
14,1,1,231,34,5,5,"Slide193.bmp",2819,False
14,1,1,235,23,8,8,"Slide197.bmp",1908,False
14,1,1,236,24,4,4,"Slide198.bmp",1049,False
14,1,1,237,25,1,1,"Slide199.bmp",1716,True
14,1,1,238,17,9,9,"Slide200.bmp",2492,False
14,1,1,239,18,6,6,"Slide201.bmp",4744,False
14,1,1,240,19,1,1,"Slide202.bmp",2126,True
Subj,Cond,Block,Trial,Order,Resp,Name,Stim,RT,Correct
15,1,1,1,1,57,SPACE,"Slide1.bmp",70368,True
15,1,1,2,2,57,SPACE,"Slide2.bmp",57862,True
15,1,1,3,3,57,SPACE,"Slide3.bmp",4607,True
15,1,1,4,4,57,SPACE,"Slide4.bmp",23264,True
15,1,1,5,5,57,SPACE,"b1.bmp",15075,True
15,1,1,6,6,57,SPACE,"Slide5.bmp",1442,True
15,1,1,7,7,1,1,"b2.bmp",7374,True
15,1,1,8,8,6,6,"Slide6.bmp",7203,False
15,1,1,9,9,5,5,"Slide7.bmp",4072,False
15,1,1,10,10,5,5,"Slide8.bmp",3981,False
15,1,1,11,11,57,SPACE,"Slide9.bmp",4615,True
15,1,1,12,12,57,SPACE,"Slide10.bmp",6979,True
15,1,1,13,17,1,1,"b3.bmp",5491,True
15,1,1,14,18,6,6,"Slide11.bmp",4909,False
15,1,1,15,19,4,4,"Slide12.bmp",3507,False
15,1,1,16,20,5,5,"Slide13.bmp",1146,False
15,1,1,17,72,1,1,"b4.bmp",6164,True
15,1,1,18,73,7,7,"Slide14.bmp",2497,False
15,1,1,19,74,5,5,"Slide15.bmp",203,False
15,1,1,20,75,5,5,"Slide16.bmp",525,False
15,1,1,33,100,2,2,"b8.bmp",3845,False
15,1,1,34,101,5,5,"Slide26.bmp",2167,False
15,1,1,35,102,5,5,"Slide27.bmp",79,False
15,1,1,36,103,5,5,"Slide28.bmp",155,False
15,1,1,37,152,2,2,"b9.bmp",5023,False
15,1,1,38,153,5,5,"Slide29.bmp",947,False
15,1,1,39,154,5,5,"Slide30.bmp",201,False
15,1,1,40,155,5,5,"Slide31.bmp",203,False
15,1,1,45,114,1,1,"b11.bmp",4377,True
15,1,1,46,115,5,5,"Slide35.bmp",1000,False
15,1,1,47,116,5,5,"Slide36.bmp",90,False
15,1,1,48,117,5,5,"Slide37.bmp",134,False
15,1,1,49,65,1,1,"b12.bmp",4588,True
15,1,1,50,66,5,5,"Slide38.bmp",1870,False
15,1,1,51,67,5,5,"Slide39.bmp",100,False
15,1,1,52,68,5,5,"Slide40.bmp",136,False
15,1,1,53,183,1,1,"b13.bmp",2847,True
15,1,1,54,184,5,5,"Slide41.bmp",4019,False
15,1,1,55,185,5,5,"Slide42.bmp",581,False
15,1,1,56,186,5,5,"Slide43.bmp",386,False
15,1,1,57,44,2,2,"b14.bmp",6198,False
15,1,1,58,45,6,6,"Slide44.bmp",2362,False
15,1,1,59,46,5,5,"Slide45.bmp",343,False
15,1,1,60,47,5,5,"Slide46.bmp",213,False
15,1,1,61,48,1,1,"b15.bmp",3371,True
15,1,1,62,49,5,5,"Slide47.bmp",2188,False
15,1,1,63,50,5,5,"Slide48.bmp",22,False
15,1,1,64,51,5,5,"Slide49.bmp",119,False
15,1,1,65,96,2,2,"b16.bmp",4346,False
15,1,1,66,97,5,5,"Slide50.bmp",3171,False
15,1,1,67,98,5,5,"Slide51.bmp",237,False
15,1,1,68,99,5,5,"Slide52.bmp",167,False
15,1,1,69,121,1,1,"b17.bmp",14622,True
15,1,1,70,122,5,5,"Slide53.bmp",2111,False
15,1,1,71,123,5,5,"Slide54.bmp",143,False
15,1,1,72,124,5,5,"Slide55.bmp",528,False
15,1,1,73,125,1,1,"b18.bmp",2580,True
15,1,1,74,126,4,4,"Slide56.bmp",2226,False
15,1,1,75,127,5,5,"Slide57.bmp",1029,False
15,1,1,76,128,5,5,"Slide58.bmp",129,False
15,1,1,77,132,1,1,"b19.bmp",4290,True
15,1,1,78,133,5,5,"Slide59.bmp",646,False
15,1,1,79,134,5,5,"Slide60.bmp",122,False
15,1,1,80,135,5,5,"Slide61.bmp",37,False
15,1,1,81,76,1,1,"b20.bmp",4557,True
15,1,1,82,77,6,6,"Slide62.bmp",2766,False
15,1,1,83,78,5,5,"Slide63.bmp",527,False
15,1,1,84,79,5,5,"Slide64.bmp",624,False
15,1,1,85,25,1,1,"b21.bmp",5139,True
15,1,1,86,26,3,3,"Slide65.bmp",5333,False
15,1,1,87,27,5,5,"Slide66.bmp",2124,False
15,1,1,88,28,6,6,"Slide67.bmp",3523,False
15,1,1,89,29,1,1,"b22.bmp",5506,True
15,1,1,90,30,4,4,"Slide68.bmp",2951,False
15,1,1,91,31,4,4,"Slide69.bmp",2966,False
15,1,1,92,32,4,4,"Slide70.bmp",4429,False
15,1,1,93,86,1,1,"b23.bmp",4166,True
15,1,1,94,87,4,4,"Slide71.bmp",2531,False
15,1,1,95,88,5,5,"Slide72.bmp",783,False
15,1,1,96,89,5,5,"Slide73.bmp",56,False
15,1,1,97,169,1,1,"b24.bmp",3114,True
15,1,1,98,170,5,5,"Slide74.bmp",1206,False
15,1,1,99,171,5,5,"Slide75.bmp",128,False
15,1,1,100,172,5,5,"Slide76.bmp",520,False
15,1,1,101,156,1,1,"b25.bmp",3869,True
15,1,1,102,157,5,5,"Slide77.bmp",4413,False
15,1,1,103,158,5,5,"Slide78.bmp",505,False
15,1,1,104,159,5,5,"Slide79.bmp",234,False
15,1,1,105,21,1,1,"b26.bmp",4970,True
15,1,1,106,22,5,5,"Slide80.bmp",4097,False
15,1,1,107,23,5,5,"Slide81.bmp",244,False
15,1,1,108,24,5,5,"Slide82.bmp",217,False
15,1,1,109,136,2,2,"b27.bmp",2581,False
15,1,1,110,137,5,5,"Slide83.bmp",484,False
15,1,1,111,138,5,5,"Slide84.bmp",133,False
15,1,1,112,139,5,5,"Slide85.bmp",123,False
15,1,1,113,36,2,2,"b28.bmp",6792,False
15,1,1,114,37,5,5,"Slide86.bmp",2047,False
15,1,1,115,38,5,5,"Slide87.bmp",218,False
15,1,1,116,39,5,5,"Slide88.bmp",262,False
15,1,1,117,13,1,1,"b29.bmp",4718,True
15,1,1,118,14,7,7,"Slide89.bmp",3657,False
15,1,1,119,15,5,5,"Slide90.bmp",3450,False
15,1,1,120,16,6,6,"Slide91.bmp",3830,False
15,1,1,121,104,2,2,"b30.bmp",2160,False
15,1,1,122,105,5,5,"Slide92.bmp",957,False
15,1,1,123,106,5,5,"Slide93.bmp",2497,False
15,1,1,124,107,5,5,"Slide94.bmp",90,False
15,1,1,129,40,2,2,"b32.bmp",5695,False
15,1,1,130,41,7,7,"Slide98.bmp",3013,False
15,1,1,131,42,5,5,"Slide99.bmp",1518,False
15,1,1,132,43,5,5,"Slide100.bmp",101,False
15,1,1,133,173,2,2,"b33.bmp",2954,False
15,1,1,134,174,6,6,"Slide101.bmp",1912,False
15,1,1,135,175,5,5,"Slide102.bmp",621,False
15,1,1,136,176,5,5,"Slide103.bmp",452,False
15,1,1,141,55,1,1,"b35.bmp",5077,True
15,1,1,142,56,7,7,"Slide107.bmp",2678,False
15,1,1,143,57,5,5,"Slide108.bmp",302,False
15,1,1,144,58,5,5,"Slide109.bmp",31,False
15,1,1,153,193,0,,"",0,False
15,1,1,157,59,8,8,"Slide119.bmp",4188,False
15,1,1,158,60,5,5,"Slide120.bmp",1178,False
15,1,1,159,61,5,5,"Slide121.bmp",112,False
15,1,1,163,83,7,7,"Slide125.bmp",5819,False
15,1,1,164,84,5,5,"Slide126.bmp",874,False
15,1,1,165,85,5,5,"Slide127.bmp",223,False
15,1,1,169,143,5,5,"Slide131.bmp",177,False
15,1,1,170,144,5,5,"Slide132.bmp",3850,False
15,1,1,171,145,5,5,"Slide133.bmp",476,False
15,1,1,172,187,7,7,"Slide134.bmp",1842,False
15,1,1,173,188,5,5,"Slide135.bmp",428,False
15,1,1,174,189,5,5,"Slide136.bmp",243,False
15,1,1,175,111,5,5,"Slide137.bmp",3355,False
15,1,1,176,112,5,5,"Slide138.bmp",283,False
15,1,1,177,113,5,5,"Slide139.bmp",112,False
15,1,1,178,90,5,5,"Slide140.bmp",1931,False
15,1,1,179,91,5,5,"Slide141.bmp",353,False
15,1,1,180,92,5,5,"Slide142.bmp",76,False
15,1,1,181,129,5,5,"Slide143.bmp",936,False
15,1,1,182,130,5,5,"Slide144.bmp",118,False
15,1,1,183,131,5,5,"Slide145.bmp",112,False
15,1,1,184,93,5,5,"Slide146.bmp",1610,False
15,1,1,185,94,5,5,"Slide147.bmp",569,False
15,1,1,186,95,5,5,"Slide148.bmp",527,False
15,1,1,187,146,5,5,"Slide149.bmp",957,False
15,1,1,188,147,5,5,"Slide150.bmp",99,False
15,1,1,189,148,5,5,"Slide151.bmp",276,False
15,1,1,190,177,5,5,"Slide152.bmp",3161,False
15,1,1,191,178,5,5,"Slide153.bmp",734,False
15,1,1,192,179,5,5,"Slide154.bmp",57,False
15,1,1,193,69,5,5,"Slide155.bmp",1569,False
15,1,1,194,70,5,5,"Slide156.bmp",590,False
15,1,1,195,71,5,5,"Slide157.bmp",590,False
15,1,1,196,80,5,5,"Slide158.bmp",640,False
15,1,1,197,81,5,5,"Slide159.bmp",216,False
15,1,1,198,82,5,5,"Slide160.bmp",195,False
15,1,1,199,62,5,5,"Slide161.bmp",3389,False
15,1,1,200,63,5,5,"Slide162.bmp",930,False
15,1,1,201,64,5,5,"Slide163.bmp",584,False
15,1,1,202,52,8,8,"Slide164.bmp",5227,False
15,1,1,203,53,5,5,"Slide165.bmp",2355,False
15,1,1,204,54,5,5,"Slide166.bmp",1612,False
15,1,1,205,149,7,7,"Slide167.bmp",4299,False
15,1,1,206,150,5,5,"Slide168.bmp",1421,False
15,1,1,207,151,5,5,"Slide169.bmp",82,False
15,1,1,208,180,7,7,"Slide170.bmp",3759,False
15,1,1,209,181,5,5,"Slide171.bmp",758,False
15,1,1,210,182,5,5,"Slide172.bmp",285,False
15,1,1,211,140,6,6,"Slide173.bmp",4258,False
15,1,1,212,141,5,5,"Slide174.bmp",2532,False
15,1,1,213,142,5,5,"Slide175.bmp",48,False
15,1,1,217,118,8,8,"Slide179.bmp",4311,False
15,1,1,218,119,5,5,"Slide180.bmp",958,False
15,1,1,219,120,5,5,"Slide181.bmp",412,False
15,1,1,220,33,7,7,"Slide182.bmp",5410,False
15,1,1,221,34,5,5,"Slide183.bmp",3133,False
15,1,1,222,35,5,5,"Slide184.bmp",1889,False
15,1,1,223,166,7,7,"Slide185.bmp",3981,False
15,1,1,224,167,5,5,"Slide186.bmp",1351,False
15,1,1,225,168,5,5,"Slide187.bmp",119,False
15,1,1,226,108,7,7,"Slide188.bmp",8090,False
15,1,1,227,109,5,5,"Slide189.bmp",1893,False
15,1,1,228,110,5,5,"Slide190.bmp",561,False
15,1,1,229,163,6,6,"Slide191.bmp",3921,False
15,1,1,230,164,5,5,"Slide192.bmp",1115,False
15,1,1,231,165,5,5,"Slide193.bmp",75,False
15,1,1,232,190,7,7,"Slide194.bmp",3084,False
15,1,1,233,191,5,5,"Slide195.bmp",972,False
15,1,1,234,192,5,5,"Slide196.bmp",82,False
15,1,1,235,160,7,7,"Slide197.bmp",5238,False
15,1,1,236,161,5,5,"Slide198.bmp",2666,False
15,1,1,237,162,5,5,"Slide199.bmp",136,False
Subj,Cond,Block,Trial,Order,Resp,Name,Stim,RT,Correct
16,1,1,1,1,57,SPACE,"Slide1.bmp",20857,True
16,1,1,2,2,57,SPACE,"Slide2.bmp",9302,True
16,1,1,3,3,57,SPACE,"Slide3.bmp",407,True
16,1,1,4,4,57,SPACE,"Slide4.bmp",796,True
16,1,1,5,5,57,SPACE,"b1.bmp",5314,True
16,1,1,6,6,57,SPACE,"Slide5.bmp",816,True
16,1,1,7,7,2,2,"b2.bmp",4672,False
16,1,1,8,8,9,9,"Slide6.bmp",2376,False
16,1,1,9,9,1,1,"Slide7.bmp",4262,True
16,1,1,10,10,5,5,"Slide8.bmp",8656,False
16,1,1,11,11,57,SPACE,"Slide9.bmp",1758,True
16,1,1,12,12,57,SPACE,"Slide10.bmp",7833,True
16,1,1,17,90,1,1,"b4.bmp",6458,True
16,1,1,18,91,9,9,"Slide14.bmp",1242,False
16,1,1,19,92,2,2,"Slide15.bmp",859,False
16,1,1,20,93,7,7,"Slide16.bmp",592,False
16,1,1,21,59,2,2,"b5.bmp",2420,False
16,1,1,22,60,9,9,"Slide17.bmp",1058,False
16,1,1,23,61,1,1,"Slide18.bmp",890,True
16,1,1,24,62,6,6,"Slide19.bmp",1426,False
16,1,1,25,51,2,2,"b6.bmp",4217,False
16,1,1,26,52,8,8,"Slide20.bmp",1685,False
16,1,1,27,53,1,1,"Slide21.bmp",2274,True
16,1,1,28,54,5,5,"Slide22.bmp",2505,False
16,1,1,33,94,2,2,"b8.bmp",2941,False
16,1,1,34,95,7,7,"Slide26.bmp",1409,False
16,1,1,35,96,7,7,"Slide27.bmp",1092,False
16,1,1,36,97,7,7,"Slide28.bmp",842,False
16,1,1,37,29,2,2,"b9.bmp",8824,False
16,1,1,38,30,7,7,"Slide29.bmp",1952,False
16,1,1,39,31,3,3,"Slide30.bmp",1737,False
16,1,1,40,32,6,6,"Slide31.bmp",3152,False
16,1,1,41,102,1,1,"b10.bmp",4557,True
16,1,1,42,103,5,5,"Slide32.bmp",1987,False
16,1,1,43,104,3,3,"Slide33.bmp",86,False
16,1,1,44,105,6,6,"Slide34.bmp",446,False
16,1,1,45,55,2,2,"b11.bmp",4899,False
16,1,1,46,56,9,9,"Slide35.bmp",2096,False
16,1,1,47,57,3,3,"Slide36.bmp",1201,False
16,1,1,48,58,6,6,"Slide37.bmp",7204,False
16,1,1,49,98,1,1,"b12.bmp",3756,True
16,1,1,50,99,7,7,"Slide38.bmp",1005,False
16,1,1,51,100,4,4,"Slide39.bmp",119,False
16,1,1,52,101,5,5,"Slide40.bmp",95,False
16,1,1,57,66,2,2,"b14.bmp",2949,False
16,1,1,58,67,7,7,"Slide44.bmp",1481,False
16,1,1,59,68,5,5,"Slide45.bmp",1831,False
16,1,1,60,69,6,6,"Slide46.bmp",2325,False
16,1,1,61,123,2,2,"b15.bmp",6235,False
16,1,1,62,124,3,3,"Slide47.bmp",4020,False
16,1,1,63,125,3,3,"Slide48.bmp",2480,False
16,1,1,64,126,8,8,"Slide49.bmp",3044,False
16,1,1,69,13,1,1,"b17.bmp",4640,True
16,1,1,70,14,7,7,"Slide53.bmp",5739,False
16,1,1,71,15,3,3,"Slide54.bmp",3388,False
16,1,1,72,16,8,8,"Slide55.bmp",3785,False
16,1,1,73,142,1,1,"b18.bmp",13502,True
16,1,1,74,143,7,7,"Slide56.bmp",1199,False
16,1,1,75,144,3,3,"Slide57.bmp",1053,False
16,1,1,76,145,9,9,"Slide58.bmp",1019,False
16,1,1,85,73,1,1,"b21.bmp",4793,True
16,1,1,86,74,8,8,"Slide65.bmp",2565,False
16,1,1,87,75,6,6,"Slide66.bmp",2758,False
16,1,1,88,76,7,7,"Slide67.bmp",1349,False
16,1,1,89,131,1,1,"b22.bmp",2739,True
16,1,1,90,132,8,8,"Slide68.bmp",1538,False
16,1,1,91,133,4,4,"Slide69.bmp",913,False
16,1,1,92,134,6,6,"Slide70.bmp",2052,False
16,1,1,93,109,1,1,"b23.bmp",3119,True
16,1,1,94,110,7,7,"Slide71.bmp",1004,False
16,1,1,95,111,1,1,"Slide72.bmp",1898,True
16,1,1,96,112,2,2,"Slide73.bmp",2547,False
16,1,1,101,33,1,1,"b25.bmp",3424,True
16,1,1,102,34,9,9,"Slide77.bmp",1627,False
16,1,1,103,35,5,5,"Slide78.bmp",2043,False
16,1,1,104,36,1,1,"Slide79.bmp",3412,True
16,1,1,105,113,1,1,"b26.bmp",4678,True
16,1,1,106,114,8,8,"Slide80.bmp",1301,False
16,1,1,107,115,4,4,"Slide81.bmp",845,False
16,1,1,108,116,5,5,"Slide82.bmp",2592,False
16,1,1,113,127,2,2,"b28.bmp",2495,False
16,1,1,114,128,7,7,"Slide86.bmp",3127,False
16,1,1,115,129,2,2,"Slide87.bmp",1422,False
16,1,1,116,130,7,7,"Slide88.bmp",2859,False
16,1,1,117,41,2,2,"b29.bmp",3717,False
16,1,1,118,42,6,6,"Slide89.bmp",1501,False
16,1,1,119,43,1,1,"Slide90.bmp",1122,True
16,1,1,120,44,9,9,"Slide91.bmp",2503,False
16,1,1,133,135,2,2,"b33.bmp",2674,False
16,1,1,134,136,8,8,"Slide101.bmp",862,False
16,1,1,135,137,4,4,"Slide102.bmp",2282,False
16,1,1,136,138,9,9,"Slide103.bmp",1088,False
16,1,1,137,77,2,2,"b34.bmp",5462,False
16,1,1,138,78,7,7,"Slide104.bmp",4069,False
16,1,1,139,79,5,5,"Slide105.bmp",1515,False
16,1,1,140,80,7,7,"Slide106.bmp",1420,False
16,1,1,141,37,1,1,"b35.bmp",11632,True
16,1,1,142,38,7,7,"Slide107.bmp",1690,False
16,1,1,143,39,2,2,"Slide108.bmp",1814,False
16,1,1,144,40,1,1,"Slide109.bmp",2901,True
16,1,1,153,146,0,,"",0,False
16,1,1,157,87,9,9,"Slide119.bmp",1615,False
16,1,1,158,88,1,1,"Slide120.bmp",1729,True
16,1,1,159,89,1,1,"Slide121.bmp",1894,True
16,1,1,160,63,9,9,"Slide122.bmp",1845,False
16,1,1,161,64,4,4,"Slide123.bmp",1824,False
16,1,1,162,65,7,7,"Slide124.bmp",1392,False
16,1,1,166,48,8,8,"Slide128.bmp",3325,False
16,1,1,167,49,3,3,"Slide129.bmp",1693,False
16,1,1,168,50,2,2,"Slide130.bmp",3004,False
16,1,1,172,23,9,9,"Slide134.bmp",5826,False
16,1,1,173,24,1,1,"Slide135.bmp",1730,True
16,1,1,174,25,1,1,"Slide136.bmp",1476,True
16,1,1,178,70,4,4,"Slide140.bmp",3677,False
16,1,1,179,71,9,9,"Slide141.bmp",1862,False
16,1,1,180,72,9,9,"Slide142.bmp",1298,False
16,1,1,181,120,5,5,"Slide143.bmp",2183,False
16,1,1,182,121,9,9,"Slide144.bmp",1252,False
16,1,1,183,122,9,9,"Slide145.bmp",1579,False
16,1,1,184,84,7,7,"Slide146.bmp",3454,False
16,1,1,185,85,7,7,"Slide147.bmp",2011,False
16,1,1,186,86,9,9,"Slide148.bmp",1959,False
16,1,1,190,20,3,3,"Slide152.bmp",4337,False
16,1,1,191,21,8,8,"Slide153.bmp",2414,False
16,1,1,192,22,9,9,"Slide154.bmp",3513,False
16,1,1,196,26,5,5,"Slide158.bmp",2499,False
16,1,1,197,27,6,6,"Slide159.bmp",2372,False
16,1,1,198,28,7,7,"Slide160.bmp",1985,False
16,1,1,205,17,6,6,"Slide167.bmp",3073,False
16,1,1,206,18,2,2,"Slide168.bmp",2058,False
16,1,1,207,19,2,2,"Slide169.bmp",3164,False
16,1,1,220,45,9,9,"Slide182.bmp",1953,False
16,1,1,221,46,4,4,"Slide183.bmp",2469,False
16,1,1,222,47,1,1,"Slide184.bmp",1713,True
16,1,1,226,106,9,9,"Slide188.bmp",2627,False
16,1,1,227,107,5,5,"Slide189.bmp",1534,False
16,1,1,228,108,1,1,"Slide190.bmp",1456,True
16,1,1,229,117,9,9,"Slide191.bmp",1645,False
16,1,1,230,118,8,8,"Slide192.bmp",1919,False
16,1,1,231,119,1,1,"Slide193.bmp",990,True
16,1,1,235,139,6,6,"Slide197.bmp",3511,False
16,1,1,236,140,5,5,"Slide198.bmp",2526,False
16,1,1,237,141,3,3,"Slide199.bmp",2091,False
16,1,1,238,81,9,9,"Slide200.bmp",1950,False
16,1,1,239,82,8,8,"Slide201.bmp",1710,False
16,1,1,240,83,1,1,"Slide202.bmp",3334,True
Subj,Cond,Block,Trial,Order,Resp,Name,Stim,RT,Correct
17,1,1,1,1,57,SPACE,"Slide1.bmp",67406,True
17,1,1,2,2,57,SPACE,"Slide2.bmp",23695,True
17,1,1,3,3,57,SPACE,"Slide3.bmp",18156,True
17,1,1,4,4,57,SPACE,"Slide4.bmp",19327,True
17,1,1,5,5,57,SPACE,"b1.bmp",7111,True
17,1,1,6,6,57,SPACE,"Slide5.bmp",1461,True
17,1,1,7,7,2,2,"b2.bmp",6517,False
17,1,1,8,8,6,6,"Slide6.bmp",14857,False
17,1,1,9,9,7,7,"Slide7.bmp",15252,False
17,1,1,10,10,5,5,"Slide8.bmp",4188,False
17,1,1,11,11,57,SPACE,"Slide9.bmp",2941,True
17,1,1,12,12,57,SPACE,"Slide10.bmp",5777,True
17,1,1,13,37,1,1,"b3.bmp",13687,True
17,1,1,14,38,5,5,"Slide11.bmp",1666,False
17,1,1,15,39,5,5,"Slide12.bmp",15928,False
17,1,1,16,40,5,5,"Slide13.bmp",3039,False
17,1,1,17,60,2,2,"b4.bmp",42978,False
17,1,1,18,61,5,5,"Slide14.bmp",1675,False
17,1,1,19,62,5,5,"Slide15.bmp",730,False
17,1,1,20,63,5,5,"Slide16.bmp",704,False
17,1,1,21,122,1,1,"b5.bmp",6636,True
17,1,1,22,123,5,5,"Slide17.bmp",1769,False
17,1,1,23,124,5,5,"Slide18.bmp",787,False
17,1,1,24,125,5,5,"Slide19.bmp",119,False
17,1,1,25,126,2,2,"b6.bmp",9204,False
17,1,1,26,127,5,5,"Slide20.bmp",8266,False
17,1,1,27,128,5,5,"Slide21.bmp",428,False
17,1,1,28,129,5,5,"Slide22.bmp",754,False
17,1,1,29,141,1,1,"b7.bmp",41098,True
17,1,1,30,142,5,5,"Slide23.bmp",747,False
17,1,1,31,143,5,5,"Slide24.bmp",455,False
17,1,1,32,144,5,5,"Slide25.bmp",164,False
17,1,1,33,134,2,2,"b8.bmp",2399,False
17,1,1,34,135,5,5,"Slide26.bmp",3989,False
17,1,1,35,136,5,5,"Slide27.bmp",850,False
17,1,1,36,137,5,5,"Slide28.bmp",184,False
17,1,1,37,16,1,1,"b9.bmp",8166,True
17,1,1,38,17,5,5,"Slide29.bmp",3114,False
17,1,1,39,18,5,5,"Slide30.bmp",7011,False
17,1,1,40,19,5,5,"Slide31.bmp",2477,False
17,1,1,41,56,2,2,"b10.bmp",4362,False
17,1,1,42,57,5,5,"Slide32.bmp",2839,False
17,1,1,43,58,5,5,"Slide33.bmp",2116,False
17,1,1,44,59,5,5,"Slide34.bmp",1268,False
17,1,1,45,44,2,2,"b11.bmp",26251,False
17,1,1,46,45,5,5,"Slide35.bmp",6721,False
17,1,1,47,46,5,5,"Slide36.bmp",12018,False
17,1,1,48,47,5,5,"Slide37.bmp",2883,False
17,1,1,49,64,1,1,"b12.bmp",8338,True
17,1,1,50,65,5,5,"Slide38.bmp",3436,False
17,1,1,51,66,4,4,"Slide39.bmp",3916,False
17,1,1,52,67,5,5,"Slide40.bmp",1477,False
17,1,1,85,95,1,1,"b21.bmp",3907,True
17,1,1,86,96,6,6,"Slide65.bmp",4068,False
17,1,1,87,97,5,5,"Slide66.bmp",2508,False
17,1,1,88,98,5,5,"Slide67.bmp",1259,False
17,1,1,93,130,1,1,"b23.bmp",4194,True
17,1,1,94,131,5,5,"Slide71.bmp",455,False
17,1,1,95,132,5,5,"Slide72.bmp",200,False
17,1,1,96,133,5,5,"Slide73.bmp",29,False
17,1,1,101,88,1,1,"b25.bmp",3075,True
17,1,1,102,89,6,6,"Slide77.bmp",3477,False
17,1,1,103,90,5,5,"Slide78.bmp",2614,False
17,1,1,104,91,5,5,"Slide79.bmp",1283,False
17,1,1,105,77,1,1,"b26.bmp",10834,True
17,1,1,106,78,5,5,"Slide80.bmp",8620,False
17,1,1,107,79,5,5,"Slide81.bmp",990,False
17,1,1,108,80,5,5,"Slide82.bmp",389,False
17,1,1,109,81,2,2,"b27.bmp",2080,False
17,1,1,110,82,5,5,"Slide83.bmp",960,False
17,1,1,111,83,5,5,"Slide84.bmp",1047,False
17,1,1,112,84,5,5,"Slide85.bmp",11449,False
17,1,1,113,108,2,2,"b28.bmp",10119,False
17,1,1,114,109,5,5,"Slide86.bmp",1548,False
17,1,1,115,110,5,5,"Slide87.bmp",242,False
17,1,1,116,111,5,5,"Slide88.bmp",206,False
17,1,1,117,115,2,2,"b29.bmp",4894,False
17,1,1,118,116,5,5,"Slide89.bmp",236,False
17,1,1,119,117,5,5,"Slide90.bmp",973,False
17,1,1,120,118,5,5,"Slide91.bmp",391,False
17,1,1,121,48,2,2,"b30.bmp",3846,False
17,1,1,122,49,6,6,"Slide92.bmp",6675,False
17,1,1,123,50,5,5,"Slide93.bmp",5241,False
17,1,1,124,51,5,5,"Slide94.bmp",4925,False
17,1,1,125,30,1,1,"b31.bmp",3092,True
17,1,1,126,31,5,5,"Slide95.bmp",2497,False
17,1,1,127,32,5,5,"Slide96.bmp",1746,False
17,1,1,128,33,5,5,"Slide97.bmp",1453,False
17,1,1,133,52,2,2,"b33.bmp",5104,False
17,1,1,134,53,5,5,"Slide101.bmp",1781,False
17,1,1,135,54,5,5,"Slide102.bmp",997,False
17,1,1,136,55,5,5,"Slide103.bmp",945,False
17,1,1,141,20,1,1,"b35.bmp",5813,True
17,1,1,142,21,5,5,"Slide107.bmp",2155,False
17,1,1,143,22,5,5,"Slide108.bmp",5845,False
17,1,1,144,23,5,5,"Slide109.bmp",1987,False
17,1,1,153,154,0,,"",0,False
17,1,1,157,13,6,6,"Slide119.bmp",21910,False
17,1,1,158,14,9,9,"Slide120.bmp",4450,False
17,1,1,159,15,5,5,"Slide121.bmp",2774,False
17,1,1,166,151,5,5,"Slide128.bmp",2085,False
17,1,1,167,152,5,5,"Slide129.bmp",787,False
17,1,1,168,153,5,5,"Slide130.bmp",35,False
17,1,1,169,74,6,6,"Slide131.bmp",4751,False
17,1,1,170,75,4,4,"Slide132.bmp",1397,False
17,1,1,171,76,5,5,"Slide133.bmp",1298,False
17,1,1,172,34,6,6,"Slide134.bmp",7253,False
17,1,1,173,35,5,5,"Slide135.bmp",3953,False
17,1,1,174,36,5,5,"Slide136.bmp",1546,False
17,1,1,178,24,5,5,"Slide140.bmp",8314,False
17,1,1,179,25,7,7,"Slide141.bmp",1588,False
17,1,1,180,26,5,5,"Slide142.bmp",1162,False
17,1,1,184,112,5,5,"Slide146.bmp",3055,False
17,1,1,185,113,5,5,"Slide147.bmp",62,False
17,1,1,186,114,5,5,"Slide148.bmp",109,False
17,1,1,187,41,5,5,"Slide149.bmp",6362,False
17,1,1,188,42,8,8,"Slide150.bmp",4183,False
17,1,1,189,43,5,5,"Slide151.bmp",1391,False
17,1,1,196,105,3,3,"Slide158.bmp",11275,False
17,1,1,197,106,8,8,"Slide159.bmp",2170,False
17,1,1,198,107,5,5,"Slide160.bmp",1322,False
17,1,1,202,27,6,6,"Slide164.bmp",7531,False
17,1,1,203,28,3,3,"Slide165.bmp",7768,False
17,1,1,204,29,5,5,"Slide166.bmp",10147,False
17,1,1,205,99,7,7,"Slide167.bmp",11417,False
17,1,1,206,100,5,5,"Slide168.bmp",5083,False
17,1,1,207,101,5,5,"Slide169.bmp",2516,False
17,1,1,208,145,6,6,"Slide170.bmp",3859,False
17,1,1,209,146,5,5,"Slide171.bmp",1324,False
17,1,1,210,147,5,5,"Slide172.bmp",6028,False
17,1,1,211,85,6,6,"Slide173.bmp",22582,False
17,1,1,212,86,4,4,"Slide174.bmp",3456,False
17,1,1,213,87,5,5,"Slide175.bmp",643,False
17,1,1,214,92,5,5,"Slide176.bmp",2985,False
17,1,1,215,93,4,4,"Slide177.bmp",1283,False
17,1,1,216,94,5,5,"Slide178.bmp",770,False
17,1,1,217,119,6,6,"Slide179.bmp",4798,False
17,1,1,218,120,5,5,"Slide180.bmp",1363,False
17,1,1,219,121,5,5,"Slide181.bmp",1335,False
17,1,1,220,102,5,5,"Slide182.bmp",3758,False
17,1,1,221,103,5,5,"Slide183.bmp",460,False
17,1,1,222,104,5,5,"Slide184.bmp",545,False
17,1,1,223,71,8,8,"Slide185.bmp",15278,False
17,1,1,224,72,5,5,"Slide186.bmp",1893,False
17,1,1,225,73,5,5,"Slide187.bmp",871,False
17,1,1,226,148,7,7,"Slide188.bmp",1768,False
17,1,1,227,149,5,5,"Slide189.bmp",4946,False
17,1,1,228,150,5,5,"Slide190.bmp",702,False
17,1,1,232,68,7,7,"Slide194.bmp",7888,False
17,1,1,233,69,5,5,"Slide195.bmp",4946,False
17,1,1,234,70,5,5,"Slide196.bmp",772,False
17,1,1,241,138,5,5,"Slide203.bmp",7519,False
17,1,1,242,139,5,5,"Slide204.bmp",26,False
17,1,1,243,140,5,5,"Slide205.bmp",367,False
Subj,Cond,Block,Trial,Order,Resp,Name,Stim,RT,Correct
18,1,1,1,1,57,SPACE,"Slide1.bmp",70605,True
18,1,1,2,2,57,SPACE,"Slide2.bmp",27248,True
18,1,1,3,3,57,SPACE,"Slide3.bmp",4188,True
18,1,1,4,4,57,SPACE,"Slide4.bmp",15484,True
18,1,1,5,5,57,SPACE,"b1.bmp",14068,True
18,1,1,6,6,57,SPACE,"Slide5.bmp",1806,True
18,1,1,7,7,1,1,"b2.bmp",7068,True
18,1,1,8,8,9,9,"Slide6.bmp",6706,False
18,1,1,9,9,4,4,"Slide7.bmp",6669,False
18,1,1,10,10,5,5,"Slide8.bmp",7381,False
18,1,1,11,11,57,SPACE,"Slide9.bmp",5036,True
18,1,1,12,12,57,SPACE,"Slide10.bmp",9123,True
18,1,1,13,69,1,1,"b3.bmp",5796,True
18,1,1,14,70,5,5,"Slide11.bmp",1839,False
18,1,1,15,71,4,4,"Slide12.bmp",1083,False
18,1,1,16,72,7,7,"Slide13.bmp",234,False
18,1,1,17,109,1,1,"b4.bmp",9940,True
18,1,1,18,110,5,5,"Slide14.bmp",1586,False
18,1,1,19,111,5,5,"Slide15.bmp",1039,False
18,1,1,20,112,5,5,"Slide16.bmp",230,False
18,1,1,21,101,2,2,"b5.bmp",9938,False
18,1,1,22,102,7,7,"Slide17.bmp",1707,False
18,1,1,23,103,4,4,"Slide18.bmp",1115,False
18,1,1,24,104,5,5,"Slide19.bmp",1381,False
18,1,1,33,44,1,1,"b8.bmp",6841,True
18,1,1,34,45,8,8,"Slide26.bmp",3942,False
18,1,1,35,46,5,5,"Slide27.bmp",2497,False
18,1,1,36,47,5,5,"Slide28.bmp",1387,False
18,1,1,41,73,1,1,"b10.bmp",6825,True
18,1,1,42,74,8,8,"Slide32.bmp",1710,False
18,1,1,43,75,3,3,"Slide33.bmp",1433,False
18,1,1,44,76,5,5,"Slide34.bmp",1639,False
18,1,1,45,29,1,1,"b11.bmp",9033,True
18,1,1,46,30,7,7,"Slide35.bmp",5240,False
18,1,1,47,31,5,5,"Slide36.bmp",2658,False
18,1,1,48,32,5,5,"Slide37.bmp",1270,False
18,1,1,57,105,2,2,"b14.bmp",6044,False
18,1,1,58,106,6,6,"Slide44.bmp",1858,False
18,1,1,59,107,4,4,"Slide45.bmp",1159,False
18,1,1,60,108,7,7,"Slide46.bmp",1729,False
18,1,1,65,156,1,1,"b16.bmp",12593,True
18,1,1,66,157,8,8,"Slide50.bmp",1230,False
18,1,1,67,158,5,5,"Slide51.bmp",185,False
18,1,1,68,159,7,7,"Slide52.bmp",113,False
18,1,1,73,93,1,1,"b18.bmp",2162,True
18,1,1,74,94,5,5,"Slide56.bmp",15588,False
18,1,1,75,95,5,5,"Slide57.bmp",1250,False
18,1,1,76,96,5,5,"Slide58.bmp",494,False
18,1,1,81,48,1,1,"b20.bmp",8347,True
18,1,1,82,49,9,9,"Slide62.bmp",1873,False
18,1,1,83,50,5,5,"Slide63.bmp",2428,False
18,1,1,84,51,5,5,"Slide64.bmp",5819,False
18,1,1,85,145,1,1,"b21.bmp",3919,True
18,1,1,86,146,9,9,"Slide65.bmp",2895,False
18,1,1,87,147,7,7,"Slide66.bmp",1416,False
18,1,1,88,148,6,6,"Slide67.bmp",328,False
18,1,1,89,97,1,1,"b22.bmp",21247,True
18,1,1,90,98,5,5,"Slide68.bmp",5937,False
18,1,1,91,99,5,5,"Slide69.bmp",260,False
18,1,1,92,100,5,5,"Slide70.bmp",266,False
18,1,1,93,116,1,1,"b23.bmp",4011,True
18,1,1,94,117,9,9,"Slide71.bmp",9331,False
18,1,1,95,118,7,7,"Slide72.bmp",4116,False
18,1,1,96,119,5,5,"Slide73.bmp",2548,False
18,1,1,97,127,1,1,"b24.bmp",2910,True
18,1,1,98,128,5,5,"Slide74.bmp",6617,False
18,1,1,99,129,5,5,"Slide75.bmp",699,False
18,1,1,100,130,5,5,"Slide76.bmp",963,False
18,1,1,101,141,1,1,"b25.bmp",10257,True
18,1,1,102,142,9,9,"Slide77.bmp",1646,False
18,1,1,103,143,3,3,"Slide78.bmp",800,False
18,1,1,104,144,4,4,"Slide79.bmp",1114,False
18,1,1,105,176,1,1,"b26.bmp",2620,True
18,1,1,106,177,6,6,"Slide80.bmp",2592,False
18,1,1,107,178,4,4,"Slide81.bmp",2425,False
18,1,1,108,179,5,5,"Slide82.bmp",623,False
18,1,1,109,131,1,1,"b27.bmp",2627,True
18,1,1,110,132,6,6,"Slide83.bmp",2930,False
18,1,1,111,133,4,4,"Slide84.bmp",772,False
18,1,1,112,134,5,5,"Slide85.bmp",833,False
18,1,1,113,37,1,1,"b28.bmp",12140,True
18,1,1,114,38,5,5,"Slide86.bmp",8897,False
18,1,1,115,39,3,3,"Slide87.bmp",1536,False
18,1,1,116,40,5,5,"Slide88.bmp",1455,False
18,1,1,117,13,1,1,"b29.bmp",4662,True
18,1,1,118,14,7,7,"Slide89.bmp",3783,False
18,1,1,119,15,3,3,"Slide90.bmp",2135,False
18,1,1,120,16,3,3,"Slide91.bmp",4808,False
18,1,1,121,59,1,1,"b30.bmp",7369,True
18,1,1,122,60,5,5,"Slide92.bmp",1912,False
18,1,1,123,61,5,5,"Slide93.bmp",128,False
18,1,1,124,62,5,5,"Slide94.bmp",132,False
18,1,1,125,77,1,1,"b31.bmp",11742,True
18,1,1,126,78,5,5,"Slide95.bmp",2721,False
18,1,1,127,79,5,5,"Slide96.bmp",1316,False
18,1,1,128,80,5,5,"Slide97.bmp",10,False
18,1,1,129,160,2,2,"b32.bmp",3849,False
18,1,1,130,161,9,9,"Slide98.bmp",1342,False
18,1,1,131,162,2,2,"Slide99.bmp",95,False
18,1,1,132,163,5,5,"Slide100.bmp",34,False
18,1,1,133,120,1,1,"b33.bmp",2245,True
18,1,1,134,121,7,7,"Slide101.bmp",1444,False
18,1,1,135,122,4,4,"Slide102.bmp",1375,False
18,1,1,136,123,5,5,"Slide103.bmp",103,False
18,1,1,137,33,1,1,"b34.bmp",4296,True
18,1,1,138,34,7,7,"Slide104.bmp",3042,False
18,1,1,139,35,5,5,"Slide105.bmp",1596,False
18,1,1,140,36,4,4,"Slide106.bmp",2885,False
18,1,1,145,152,2,2,"b36.bmp",6809,False
18,1,1,146,153,8,8,"Slide110.bmp",13187,False
18,1,1,147,154,5,5,"Slide111.bmp",1382,False
18,1,1,148,155,5,5,"Slide112.bmp",1287,False
18,1,1,149,180,0,,"",0,False
18,1,1,153,52,1,1,"b38.bmp",16687,True
18,1,1,154,53,9,9,"Slide116.bmp",5890,False
18,1,1,155,54,3,3,"Slide117.bmp",4537,False
18,1,1,156,55,1,1,"Slide118.bmp",2514,True
18,1,1,157,87,9,9,"Slide119.bmp",4166,False
18,1,1,158,88,3,3,"Slide120.bmp",2424,False
18,1,1,159,89,2,2,"Slide121.bmp",2856,False
18,1,1,160,167,9,9,"Slide122.bmp",1851,False
18,1,1,161,168,3,3,"Slide123.bmp",2747,False
18,1,1,162,169,5,5,"Slide124.bmp",1370,False
18,1,1,163,149,9,9,"Slide125.bmp",12681,False
18,1,1,164,150,4,4,"Slide126.bmp",2679,False
18,1,1,165,151,3,3,"Slide127.bmp",2559,False
18,1,1,166,63,4,4,"Slide128.bmp",13296,False
18,1,1,167,64,4,4,"Slide129.bmp",2232,False
18,1,1,168,65,4,4,"Slide130.bmp",3276,False
18,1,1,169,26,8,8,"Slide131.bmp",3661,False
18,1,1,170,27,5,5,"Slide132.bmp",3452,False
18,1,1,171,28,2,2,"Slide133.bmp",9294,False
18,1,1,172,17,9,9,"Slide134.bmp",13456,False
18,1,1,173,18,2,2,"Slide135.bmp",13170,False
18,1,1,174,19,1,1,"Slide136.bmp",7696,True
18,1,1,175,41,7,7,"Slide137.bmp",6081,False
18,1,1,176,42,5,5,"Slide138.bmp",5707,False
18,1,1,177,43,5,5,"Slide139.bmp",196,False
18,1,1,178,81,5,5,"Slide140.bmp",2430,False
18,1,1,179,82,9,9,"Slide141.bmp",2969,False
18,1,1,180,83,9,9,"Slide142.bmp",3609,False
18,1,1,181,66,3,3,"Slide143.bmp",4399,False
18,1,1,182,67,5,5,"Slide144.bmp",2000,False
18,1,1,183,68,9,9,"Slide145.bmp",2526,False
18,1,1,187,90,7,7,"Slide149.bmp",10243,False
18,1,1,188,91,8,8,"Slide150.bmp",4218,False
18,1,1,189,92,5,5,"Slide151.bmp",3400,False
18,1,1,193,173,5,5,"Slide155.bmp",1656,False
18,1,1,194,174,5,5,"Slide156.bmp",70,False
18,1,1,195,175,5,5,"Slide157.bmp",154,False
18,1,1,196,135,5,5,"Slide158.bmp",2313,False
18,1,1,197,136,5,5,"Slide159.bmp",350,False
18,1,1,198,137,5,5,"Slide160.bmp",334,False
18,1,1,205,124,7,7,"Slide167.bmp",1991,False
18,1,1,206,125,4,4,"Slide168.bmp",1754,False
18,1,1,207,126,5,5,"Slide169.bmp",1224,False
18,1,1,208,84,9,9,"Slide170.bmp",2426,False
18,1,1,209,85,1,1,"Slide171.bmp",1955,True
18,1,1,210,86,1,1,"Slide172.bmp",2456,True
18,1,1,211,23,8,8,"Slide173.bmp",5158,False
18,1,1,212,24,4,4,"Slide174.bmp",3135,False
18,1,1,213,25,4,4,"Slide175.bmp",7573,False
18,1,1,217,56,9,9,"Slide179.bmp",1945,False
18,1,1,218,57,9,9,"Slide180.bmp",1767,False
18,1,1,219,58,5,5,"Slide181.bmp",5896,False
18,1,1,223,138,9,9,"Slide185.bmp",2510,False
18,1,1,224,139,1,1,"Slide186.bmp",3100,True
18,1,1,225,140,5,5,"Slide187.bmp",7482,False
18,1,1,229,164,9,9,"Slide191.bmp",1462,False
18,1,1,230,165,5,5,"Slide192.bmp",1514,False
18,1,1,231,166,5,5,"Slide193.bmp",63,False
18,1,1,232,20,9,9,"Slide194.bmp",2963,False
18,1,1,233,21,5,5,"Slide195.bmp",3100,False
18,1,1,234,22,7,7,"Slide196.bmp",4911,False
18,1,1,235,113,9,9,"Slide197.bmp",2261,False
18,1,1,236,114,3,3,"Slide198.bmp",1706,False
18,1,1,237,115,6,6,"Slide199.bmp",1871,False
18,1,1,238,170,9,9,"Slide200.bmp",1417,False
18,1,1,239,171,3,3,"Slide201.bmp",4823,False
18,1,1,240,172,7,7,"Slide202.bmp",2324,False
Subj,Cond,Block,Trial,Order,Resp,Name,Stim,RT,Correct
19,1,1,1,1,57,SPACE,"Slide1.bmp",22754,True
19,1,1,2,2,3,3,"Slide2.bmp",12045,True
19,1,1,3,3,7,7,"Slide3.bmp",9286,True
19,1,1,4,4,5,5,"Slide4.bmp",16725,True
19,1,1,5,5,2,2,"b1.bmp",15917,True
19,1,1,6,6,57,SPACE,"Slide5.bmp",1180,True
19,1,1,7,7,1,1,"b2.bmp",4237,True
19,1,1,8,8,9,9,"Slide6.bmp",2340,False
19,1,1,9,9,2,2,"Slide7.bmp",5591,False
19,1,1,10,10,4,4,"Slide8.bmp",9009,False
19,1,1,11,11,57,SPACE,"Slide9.bmp",2888,True
19,1,1,12,12,57,SPACE,"Slide10.bmp",7407,True
19,1,1,33,62,2,2,"b8.bmp",5403,False
19,1,1,34,63,7,7,"Slide26.bmp",328,False
19,1,1,35,64,4,4,"Slide27.bmp",23,False
19,1,1,36,65,5,5,"Slide28.bmp",1901,False
19,1,1,41,111,1,1,"b10.bmp",2823,True
19,1,1,42,112,5,5,"Slide32.bmp",1931,False
19,1,1,43,113,5,5,"Slide33.bmp",437,False
19,1,1,44,114,6,6,"Slide34.bmp",1502,False
19,1,1,49,89,1,1,"b12.bmp",2135,True
19,1,1,50,90,4,4,"Slide38.bmp",631,False
19,1,1,51,91,3,3,"Slide39.bmp",9202,False
19,1,1,52,92,5,5,"Slide40.bmp",3746,False
19,1,1,53,97,1,1,"b13.bmp",1547,True
19,1,1,54,98,8,8,"Slide41.bmp",1564,False
19,1,1,55,99,8,8,"Slide42.bmp",2926,False
19,1,1,56,100,3,3,"Slide43.bmp",1642,False
19,1,1,57,76,1,1,"b14.bmp",2567,True
19,1,1,58,77,7,7,"Slide44.bmp",1009,False
19,1,1,59,78,5,5,"Slide45.bmp",181,False
19,1,1,60,79,5,5,"Slide46.bmp",315,False
19,1,1,61,45,1,1,"b15.bmp",3503,True
19,1,1,62,46,3,3,"Slide47.bmp",3471,False
19,1,1,63,47,5,5,"Slide48.bmp",2888,False
19,1,1,64,48,9,9,"Slide49.bmp",2112,False
19,1,1,77,33,1,1,"b19.bmp",6729,True
19,1,1,78,34,9,9,"Slide59.bmp",1540,False
19,1,1,79,35,4,4,"Slide60.bmp",1960,False
19,1,1,80,36,6,6,"Slide61.bmp",1062,False
19,1,1,89,41,1,1,"b22.bmp",2665,True
19,1,1,90,42,8,8,"Slide68.bmp",1515,False
19,1,1,91,43,3,3,"Slide69.bmp",1911,False
19,1,1,92,44,6,6,"Slide70.bmp",879,False
19,1,1,93,37,1,1,"b23.bmp",8122,True
19,1,1,94,38,8,8,"Slide71.bmp",2004,False
19,1,1,95,39,4,4,"Slide72.bmp",9886,False
19,1,1,96,40,3,3,"Slide73.bmp",3507,False
19,1,1,97,29,2,2,"b24.bmp",7363,False
19,1,1,98,30,8,8,"Slide74.bmp",3042,False
19,1,1,99,31,3,3,"Slide75.bmp",3577,False
19,1,1,100,32,5,5,"Slide76.bmp",1605,False
19,1,1,109,107,1,1,"b27.bmp",2276,True
19,1,1,110,108,7,7,"Slide83.bmp",1304,False
19,1,1,111,109,5,5,"Slide84.bmp",3197,False
19,1,1,112,110,6,6,"Slide85.bmp",3793,False
19,1,1,113,72,1,1,"b28.bmp",2635,True
19,1,1,114,73,5,5,"Slide86.bmp",1842,False
19,1,1,115,74,1,1,"Slide87.bmp",2398,True
19,1,1,116,75,2,2,"Slide88.bmp",1225,False
19,1,1,129,25,1,1,"b32.bmp",10365,True
19,1,1,130,26,7,7,"Slide98.bmp",3877,False
19,1,1,131,27,4,4,"Slide99.bmp",1203,False
19,1,1,132,28,3,3,"Slide100.bmp",3224,False
19,1,1,133,93,1,1,"b33.bmp",2731,True
19,1,1,134,94,9,9,"Slide101.bmp",1414,False
19,1,1,135,95,3,3,"Slide102.bmp",3292,False
19,1,1,136,96,3,3,"Slide103.bmp",1320,False
19,1,1,137,52,2,2,"b34.bmp",6767,False
19,1,1,138,53,9,9,"Slide104.bmp",1708,False
19,1,1,139,54,3,3,"Slide105.bmp",2871,False
19,1,1,140,55,2,2,"Slide106.bmp",1940,False
19,1,1,153,115,0,,"",0,False
19,1,1,166,101,8,8,"Slide128.bmp",2693,False
19,1,1,167,102,2,2,"Slide129.bmp",2221,False
19,1,1,168,103,3,3,"Slide130.bmp",1599,False
19,1,1,178,19,6,6,"Slide140.bmp",3215,False
19,1,1,179,20,7,7,"Slide141.bmp",16776,False
19,1,1,180,21,8,8,"Slide142.bmp",2879,False
19,1,1,181,66,5,5,"Slide143.bmp",5355,False
19,1,1,182,67,8,8,"Slide144.bmp",1946,False
19,1,1,183,68,8,8,"Slide145.bmp",440,False
19,1,1,184,86,5,5,"Slide146.bmp",2621,False
19,1,1,185,87,7,7,"Slide147.bmp",1946,False
19,1,1,186,88,4,4,"Slide148.bmp",906,False
19,1,1,187,80,5,5,"Slide149.bmp",4460,False
19,1,1,188,81,8,8,"Slide150.bmp",2343,False
19,1,1,189,82,4,4,"Slide151.bmp",445,False
19,1,1,190,13,5,5,"Slide152.bmp",3618,False
19,1,1,191,14,8,8,"Slide153.bmp",2415,False
19,1,1,192,15,8,8,"Slide154.bmp",1512,False
19,1,1,193,104,5,5,"Slide155.bmp",2424,False
19,1,1,194,105,5,5,"Slide156.bmp",179,False
19,1,1,195,106,5,5,"Slide157.bmp",1119,False
19,1,1,196,49,5,5,"Slide158.bmp",4778,False
19,1,1,197,50,5,5,"Slide159.bmp",1095,False
19,1,1,198,51,5,5,"Slide160.bmp",565,False
19,1,1,202,22,9,9,"Slide164.bmp",1930,False
19,1,1,203,23,1,1,"Slide165.bmp",1465,True
19,1,1,204,24,6,6,"Slide166.bmp",5924,False
19,1,1,205,59,9,9,"Slide167.bmp",4282,False
19,1,1,206,60,1,1,"Slide168.bmp",1533,True
19,1,1,207,61,5,5,"Slide169.bmp",465,False
19,1,1,223,83,5,5,"Slide185.bmp",3347,False
19,1,1,224,84,6,6,"Slide186.bmp",2391,False
19,1,1,225,85,1,1,"Slide187.bmp",3542,True
19,1,1,232,56,9,9,"Slide194.bmp",2691,False
19,1,1,233,57,5,5,"Slide195.bmp",2480,False
19,1,1,234,58,3,3,"Slide196.bmp",1481,False
19,1,1,235,69,9,9,"Slide197.bmp",2436,False
19,1,1,236,70,3,3,"Slide198.bmp",3930,False
19,1,1,237,71,1,1,"Slide199.bmp",1657,True
19,1,1,238,16,9,9,"Slide200.bmp",2251,False
19,1,1,239,17,3,3,"Slide201.bmp",2343,False
19,1,1,240,18,2,2,"Slide202.bmp",1890,False
Subj,Cond,Block,Trial,Order,Resp,Name,Stim,RT,Correct
2,1,1,1,1,20,T,"Slide1.bmp",48480,True
2,1,1,2,2,40,APOSTROPHE,"Slide2.bmp",37210,True
2,1,1,3,3,39,SEMICOLON,"Slide3.bmp",11102,True
2,1,1,4,4,36,J,"Slide4.bmp",4030,True
2,1,1,5,5,36,J,"Slide5.bmp",1344,True
2,1,1,6,6,5,5,"Slide6.bmp",6622,False
2,1,1,7,7,7,7,"Slide7.bmp",7026,False
2,1,1,8,8,3,3,"Slide8.bmp",8056,False
2,1,1,9,9,36,J,"Slide9.bmp",4530,True
2,1,1,10,10,36,J,"Slide10.bmp",7480,True
2,1,1,11,65,5,5,"Slide11.bmp",2835,False
2,1,1,12,66,7,7,"Slide12.bmp",2256,False
2,1,1,13,67,1,1,"Slide13.bmp",1328,True
2,1,1,14,74,2,2,"Slide14.bmp",3271,False
2,1,1,15,75,8,8,"Slide15.bmp",1803,False
2,1,1,16,76,2,2,"Slide16.bmp",6178,False
2,1,1,17,32,5,5,"Slide17.bmp",4454,False
2,1,1,18,33,3,3,"Slide18.bmp",1898,False
2,1,1,19,34,3,3,"Slide19.bmp",2598,False
2,1,1,20,134,7,7,"Slide20.bmp",7490,False
2,1,1,21,135,3,3,"Slide21.bmp",1587,False
2,1,1,22,136,5,5,"Slide22.bmp",9396,False
2,1,1,23,38,4,4,"Slide23.bmp",6300,False
2,1,1,24,39,3,3,"Slide24.bmp",3662,False
2,1,1,25,40,2,2,"Slide25.bmp",2384,False
2,1,1,26,86,9,9,"Slide26.bmp",9287,False
2,1,1,27,87,1,1,"Slide27.bmp",3409,True
2,1,1,28,88,2,2,"Slide28.bmp",10083,False
2,1,1,29,182,6,6,"Slide29.bmp",6708,False
2,1,1,30,183,3,3,"Slide30.bmp",1657,False
2,1,1,31,184,5,5,"Slide31.bmp",1175,False
2,1,1,32,149,6,6,"Slide32.bmp",3484,False
2,1,1,33,150,2,2,"Slide33.bmp",988,False
2,1,1,34,151,5,5,"Slide34.bmp",2171,False
2,1,1,35,77,7,7,"Slide35.bmp",6215,False
2,1,1,36,78,3,3,"Slide36.bmp",2099,False
2,1,1,37,79,1,1,"Slide37.bmp",1992,True
2,1,1,38,110,8,8,"Slide38.bmp",4740,False
2,1,1,39,111,3,3,"Slide39.bmp",2528,False
2,1,1,40,112,2,2,"Slide40.bmp",1996,False
2,1,1,41,158,7,7,"Slide41.bmp",2993,False
2,1,1,42,159,4,4,"Slide42.bmp",1120,False
2,1,1,43,160,5,5,"Slide43.bmp",1174,False
2,1,1,44,116,8,8,"Slide44.bmp",3396,False
2,1,1,45,117,3,3,"Slide45.bmp",1301,False
2,1,1,46,118,1,1,"Slide46.bmp",1257,True
2,1,1,47,23,3,3,"Slide47.bmp",3772,False
2,1,1,48,24,7,7,"Slide48.bmp",3114,False
2,1,1,49,25,4,4,"Slide49.bmp",2646,False
2,1,1,50,17,4,4,"Slide50.bmp",5864,False
2,1,1,51,18,6,6,"Slide51.bmp",3267,False
2,1,1,52,19,6,6,"Slide52.bmp",2367,False
2,1,1,53,50,9,9,"Slide53.bmp",2453,False
2,1,1,54,51,3,3,"Slide54.bmp",3007,False
2,1,1,55,52,7,7,"Slide55.bmp",2163,False
2,1,1,56,194,6,6,"Slide56.bmp",3561,False
2,1,1,57,195,4,4,"Slide57.bmp",4277,False
2,1,1,58,196,4,4,"Slide58.bmp",1691,False
2,1,1,59,101,5,5,"Slide59.bmp",2688,False
2,1,1,60,102,3,3,"Slide60.bmp",2718,False
2,1,1,61,103,4,4,"Slide61.bmp",2062,False
2,1,1,62,71,9,9,"Slide62.bmp",2264,False
2,1,1,63,72,2,2,"Slide63.bmp",2467,False
2,1,1,64,73,5,5,"Slide64.bmp",2222,False
2,1,1,65,11,9,9,"Slide65.bmp",3853,False
2,1,1,66,12,3,3,"Slide66.bmp",7004,False
2,1,1,67,13,3,3,"Slide67.bmp",3759,False
2,1,1,68,89,7,7,"Slide68.bmp",2651,False
2,1,1,69,90,2,2,"Slide69.bmp",2749,False
2,1,1,70,91,3,3,"Slide70.bmp",8262,False
2,1,1,71,44,9,9,"Slide71.bmp",2852,False
2,1,1,72,45,5,5,"Slide72.bmp",2989,False
2,1,1,73,46,4,4,"Slide73.bmp",3645,False
2,1,1,74,203,7,7,"Slide74.bmp",2418,False
2,1,1,75,204,3,3,"Slide75.bmp",1501,False
2,1,1,76,205,1,1,"Slide76.bmp",522,True
2,1,1,77,137,9,9,"Slide77.bmp",2903,False
2,1,1,78,138,2,2,"Slide78.bmp",3300,False
2,1,1,79,139,2,2,"Slide79.bmp",3526,False
2,1,1,80,173,6,6,"Slide80.bmp",6433,False
2,1,1,81,174,6,6,"Slide81.bmp",3179,False
2,1,1,82,175,4,4,"Slide82.bmp",2999,False
2,1,1,83,59,3,3,"Slide83.bmp",4569,False
2,1,1,84,60,8,8,"Slide84.bmp",2869,False
2,1,1,85,61,1,1,"Slide85.bmp",1543,True
2,1,1,86,92,6,6,"Slide86.bmp",3023,False
2,1,1,87,93,2,2,"Slide87.bmp",1861,False
2,1,1,88,94,4,4,"Slide88.bmp",2201,False
2,1,1,89,119,7,7,"Slide89.bmp",2684,False
2,1,1,90,120,4,4,"Slide90.bmp",2820,False
2,1,1,91,121,4,4,"Slide91.bmp",1670,False
2,1,1,92,164,3,3,"Slide92.bmp",7918,False
2,1,1,93,165,7,7,"Slide93.bmp",3691,False
2,1,1,94,166,5,5,"Slide94.bmp",2298,False
2,1,1,95,155,6,6,"Slide95.bmp",3555,False
2,1,1,96,156,4,4,"Slide96.bmp",2136,False
2,1,1,97,157,5,5,"Slide97.bmp",1167,False
2,1,1,98,62,9,9,"Slide98.bmp",1789,False
2,1,1,99,63,3,3,"Slide99.bmp",2683,False
2,1,1,100,64,7,7,"Slide100.bmp",2831,False
2,1,1,101,125,9,9,"Slide101.bmp",3249,False
2,1,1,102,126,3,3,"Slide102.bmp",1236,False
2,1,1,103,127,5,5,"Slide103.bmp",3079,False
2,1,1,104,68,9,9,"Slide104.bmp",3252,False
2,1,1,105,69,2,2,"Slide105.bmp",1996,False
2,1,1,106,70,6,6,"Slide106.bmp",6574,False
2,1,1,107,152,9,9,"Slide107.bmp",2870,False
2,1,1,108,153,4,4,"Slide108.bmp",2333,False
2,1,1,109,154,1,1,"Slide109.bmp",1199,True
2,1,1,110,128,9,9,"Slide110.bmp",3281,False
2,1,1,111,129,7,7,"Slide111.bmp",5436,False
2,1,1,112,130,5,5,"Slide112.bmp",1976,False
2,1,1,113,161,9,9,"Slide113.bmp",1550,False
2,1,1,114,162,4,4,"Slide114.bmp",3034,False
2,1,1,115,163,2,2,"Slide115.bmp",301,False
2,1,1,116,98,9,9,"Slide116.bmp",3235,False
2,1,1,117,99,1,1,"Slide117.bmp",509,True
2,1,1,118,100,1,1,"Slide118.bmp",848,True
2,1,1,119,107,8,8,"Slide119.bmp",2934,False
2,1,1,120,108,2,2,"Slide120.bmp",2281,False
2,1,1,121,109,1,1,"Slide121.bmp",1951,True
2,1,1,122,53,9,9,"Slide122.bmp",2914,False
2,1,1,123,54,2,2,"Slide123.bmp",5014,False
2,1,1,124,55,8,8,"Slide124.bmp",3697,False
2,1,1,125,83,9,9,"Slide125.bmp",2422,False
2,1,1,126,84,2,2,"Slide126.bmp",4240,False
2,1,1,127,85,9,9,"Slide127.bmp",1682,False
2,1,1,128,179,5,5,"Slide128.bmp",5841,False
2,1,1,129,180,5,5,"Slide129.bmp",885,False
2,1,1,130,181,5,5,"Slide130.bmp",1626,False
2,1,1,131,95,9,9,"Slide131.bmp",1742,False
2,1,1,132,96,1,1,"Slide132.bmp",1468,True
2,1,1,133,97,1,1,"Slide133.bmp",908,True
2,1,1,134,188,9,9,"Slide134.bmp",1449,False
2,1,1,135,189,2,2,"Slide135.bmp",1427,False
2,1,1,136,190,1,1,"Slide136.bmp",626,True
2,1,1,137,122,7,7,"Slide137.bmp",3268,False
2,1,1,138,123,4,4,"Slide138.bmp",1768,False
2,1,1,139,124,5,5,"Slide139.bmp",1532,False
2,1,1,140,185,5,5,"Slide140.bmp",2889,False
2,1,1,141,186,8,8,"Slide141.bmp",1660,False
2,1,1,142,187,4,4,"Slide142.bmp",2733,False
2,1,1,143,41,4,4,"Slide143.bmp",4568,False
2,1,1,144,42,9,9,"Slide144.bmp",2380,False
2,1,1,145,43,1,1,"Slide145.bmp",1721,True
2,1,1,146,20,6,6,"Slide146.bmp",3809,False
2,1,1,147,21,9,9,"Slide147.bmp",2525,False
2,1,1,148,22,2,2,"Slide148.bmp",2922,False
2,1,1,149,176,5,5,"Slide149.bmp",4523,False
2,1,1,150,177,9,9,"Slide150.bmp",2714,False
2,1,1,151,178,1,1,"Slide151.bmp",2166,True
2,1,1,152,14,5,5,"Slide152.bmp",2856,False
2,1,1,153,15,9,9,"Slide153.bmp",3600,False
2,1,1,154,16,1,1,"Slide154.bmp",4045,True
2,1,1,155,104,6,6,"Slide155.bmp",4539,False
2,1,1,156,105,9,9,"Slide156.bmp",1675,False
2,1,1,157,106,5,5,"Slide157.bmp",2355,False
2,1,1,158,146,5,5,"Slide158.bmp",2553,False
2,1,1,159,147,5,5,"Slide159.bmp",2534,False
2,1,1,160,148,5,5,"Slide160.bmp",2614,False
2,1,1,161,47,4,4,"Slide161.bmp",4561,False
2,1,1,162,48,7,7,"Slide162.bmp",4469,False
2,1,1,163,49,2,2,"Slide163.bmp",1879,False
2,1,1,164,26,9,9,"Slide164.bmp",2206,False
2,1,1,165,27,3,3,"Slide165.bmp",3188,False
2,1,1,166,28,7,7,"Slide166.bmp",2340,False
2,1,1,167,131,8,8,"Slide167.bmp",1935,False
2,1,1,168,132,2,2,"Slide168.bmp",2036,False
2,1,1,169,133,4,4,"Slide169.bmp",2557,False
2,1,1,170,170,9,9,"Slide170.bmp",1409,False
2,1,1,171,171,2,2,"Slide171.bmp",387,False
2,1,1,172,172,1,1,"Slide172.bmp",254,True
2,1,1,173,35,8,8,"Slide173.bmp",2807,False
2,1,1,174,36,3,3,"Slide174.bmp",4127,False
2,1,1,175,37,7,7,"Slide175.bmp",2993,False
2,1,1,176,80,8,8,"Slide176.bmp",2058,False
2,1,1,177,81,2,2,"Slide177.bmp",1796,False
2,1,1,178,82,1,1,"Slide178.bmp",1878,True
2,1,1,179,200,9,9,"Slide179.bmp",525,False
2,1,1,180,201,2,2,"Slide180.bmp",448,False
2,1,1,181,202,2,2,"Slide181.bmp",840,False
2,1,1,182,140,9,9,"Slide182.bmp",2027,False
2,1,1,183,141,4,4,"Slide183.bmp",3258,False
2,1,1,184,142,1,1,"Slide184.bmp",2857,True
2,1,1,185,143,9,9,"Slide185.bmp",3805,False
2,1,1,186,144,2,2,"Slide186.bmp",634,False
2,1,1,187,145,1,1,"Slide187.bmp",888,True
2,1,1,188,56,9,9,"Slide188.bmp",2318,False
2,1,1,189,57,2,2,"Slide189.bmp",2249,False
2,1,1,190,58,6,6,"Slide190.bmp",3691,False
2,1,1,191,29,8,8,"Slide191.bmp",2828,False
2,1,1,192,30,5,5,"Slide192.bmp",5006,False
2,1,1,193,31,7,7,"Slide193.bmp",2825,False
2,1,1,194,167,9,9,"Slide194.bmp",2498,False
2,1,1,195,168,2,2,"Slide195.bmp",848,False
2,1,1,196,169,2,2,"Slide196.bmp",2384,False
2,1,1,197,113,9,9,"Slide197.bmp",3004,False
2,1,1,198,114,1,1,"Slide198.bmp",380,True
2,1,1,199,115,1,1,"Slide199.bmp",3515,True
2,1,1,200,197,9,9,"Slide200.bmp",1818,False
2,1,1,201,198,2,2,"Slide201.bmp",643,False
2,1,1,202,199,5,5,"Slide202.bmp",4665,False
2,1,1,203,191,9,9,"Slide203.bmp",2118,False
2,1,1,204,192,4,4,"Slide204.bmp",918,False
2,1,1,205,193,3,3,"Slide205.bmp",454,False
2,1,1,206,206,1,1,"Slide206.bmp",1800,True
2,1,1,207,207,3,3,"Slide207.bmp",2444,False
2,1,1,208,208,5,5,"Slide208.bmp",2408,False
2,1,1,209,209,1,1,"Slide209.bmp",1624,True
2,1,1,210,210,5,5,"Slide210.bmp",2043,False
2,1,1,211,211,8,8,"Slide211.bmp",4350,False
2,1,1,212,212,1,1,"Slide212.bmp",1826,True
2,1,1,213,213,6,6,"Slide213.bmp",4009,False
2,1,1,214,214,8,8,"Slide214.bmp",1703,False
2,1,1,215,215,1,1,"Slide215.bmp",884,True
2,1,1,216,216,7,7,"Slide216.bmp",2040,False
2,1,1,217,217,8,8,"Slide217.bmp",453,False
2,1,1,218,218,1,1,"Slide218.bmp",1113,True
2,1,1,219,219,6,6,"Slide219.bmp",4391,False
2,1,1,220,220,8,8,"Slide220.bmp",217,False
2,1,1,221,221,2,2,"Slide221.bmp",3072,False
2,1,1,222,222,7,7,"Slide222.bmp",2480,False
2,1,1,223,223,8,8,"Slide223.bmp",1151,False
2,1,1,224,224,57,SPACE,"Slide224.bmp",88038,True
Subj,Cond,Block,Trial,Order,Resp,Name,Stim,RT,Correct
20,1,1,1,1,205,RIGHT,"Slide1.bmp",51232,True
20,1,1,2,2,205,RIGHT,"Slide2.bmp",28895,True
20,1,1,3,3,205,RIGHT,"Slide3.bmp",16622,True
20,1,1,4,4,205,RIGHT,"Slide4.bmp",20353,True
20,1,1,5,5,205,RIGHT,"b1.bmp",9630,True
20,1,1,6,6,205,RIGHT,"Slide5.bmp",1038,True
20,1,1,7,7,2,2,"b2.bmp",6715,False
20,1,1,8,8,9,9,"Slide6.bmp",2780,False
20,1,1,9,9,1,1,"Slide7.bmp",5147,True
20,1,1,10,10,1,1,"Slide8.bmp",5299,True
20,1,1,11,11,205,RIGHT,"Slide9.bmp",3956,True
20,1,1,12,12,205,RIGHT,"Slide10.bmp",4852,True
20,1,1,17,56,1,1,"b4.bmp",4841,True
20,1,1,18,57,9,9,"Slide14.bmp",1998,False
20,1,1,19,58,7,7,"Slide15.bmp",1770,False
20,1,1,20,59,4,4,"Slide16.bmp",3566,False
20,1,1,21,98,2,2,"b5.bmp",5190,False
20,1,1,22,99,9,9,"Slide17.bmp",2825,False
20,1,1,23,100,1,1,"Slide18.bmp",1390,True
20,1,1,24,101,4,4,"Slide19.bmp",4692,False
20,1,1,25,119,2,2,"b6.bmp",3670,False
20,1,1,26,120,9,9,"Slide20.bmp",1900,False
20,1,1,27,121,5,5,"Slide21.bmp",2427,False
20,1,1,28,122,6,6,"Slide22.bmp",1719,False
20,1,1,29,90,1,1,"b7.bmp",6272,True
20,1,1,30,91,9,9,"Slide23.bmp",2071,False
20,1,1,31,92,3,3,"Slide24.bmp",1086,False
20,1,1,32,93,9,9,"Slide25.bmp",1256,False
20,1,1,37,108,2,2,"b9.bmp",2981,False
20,1,1,38,109,5,5,"Slide29.bmp",1725,False
20,1,1,39,110,2,2,"Slide30.bmp",1836,False
20,1,1,40,111,5,5,"Slide31.bmp",2397,False
20,1,1,41,123,1,1,"b10.bmp",6880,True
20,1,1,42,124,5,5,"Slide32.bmp",1565,False
20,1,1,43,125,9,9,"Slide33.bmp",534,False
20,1,1,44,126,9,9,"Slide34.bmp",1238,False
20,1,1,49,38,1,1,"b12.bmp",4365,True
20,1,1,50,39,9,9,"Slide38.bmp",1126,False
20,1,1,51,40,1,1,"Slide39.bmp",1226,True
20,1,1,52,41,3,3,"Slide40.bmp",860,False
20,1,1,53,70,2,2,"b13.bmp",3305,False
20,1,1,54,71,9,9,"Slide41.bmp",3380,False
20,1,1,55,72,2,2,"Slide42.bmp",1191,False
20,1,1,56,73,2,2,"Slide43.bmp",959,False
20,1,1,57,135,2,2,"b14.bmp",3336,False
20,1,1,58,136,9,9,"Slide44.bmp",1755,False
20,1,1,59,137,5,5,"Slide45.bmp",1444,False
20,1,1,60,138,3,3,"Slide46.bmp",118,False
20,1,1,65,13,2,2,"b16.bmp",5492,False
20,1,1,66,14,9,9,"Slide50.bmp",2062,False
20,1,1,67,15,1,1,"Slide51.bmp",1540,True
20,1,1,68,16,1,1,"Slide52.bmp",792,True
20,1,1,69,115,1,1,"b17.bmp",11152,True
20,1,1,70,116,9,9,"Slide53.bmp",1143,False
20,1,1,71,117,2,2,"Slide54.bmp",1451,False
20,1,1,72,118,2,2,"Slide55.bmp",1161,False
20,1,1,73,131,1,1,"b18.bmp",2117,True
20,1,1,74,132,9,9,"Slide56.bmp",887,False
20,1,1,75,133,3,3,"Slide57.bmp",2000,False
20,1,1,76,134,3,3,"Slide58.bmp",2670,False
20,1,1,77,63,1,1,"b19.bmp",1770,True
20,1,1,78,64,9,9,"Slide59.bmp",2093,False
20,1,1,79,65,1,1,"Slide60.bmp",930,True
20,1,1,80,66,2,2,"Slide61.bmp",1829,False
20,1,1,97,45,1,1,"b24.bmp",2019,True
20,1,1,98,46,9,9,"Slide74.bmp",1935,False
20,1,1,99,47,2,2,"Slide75.bmp",2284,False
20,1,1,100,48,2,2,"Slide76.bmp",2498,False
20,1,1,101,145,1,1,"b25.bmp",3848,True
20,1,1,102,146,9,9,"Slide77.bmp",897,False
20,1,1,103,147,3,3,"Slide78.bmp",1457,False
20,1,1,104,148,2,2,"Slide79.bmp",320,False
20,1,1,105,52,1,1,"b26.bmp",2587,True
20,1,1,106,53,6,6,"Slide80.bmp",5163,False
20,1,1,107,54,5,5,"Slide81.bmp",3219,False
20,1,1,108,55,7,7,"Slide82.bmp",1314,False
20,1,1,109,21,2,2,"b27.bmp",5484,False
20,1,1,110,22,7,7,"Slide83.bmp",5032,False
20,1,1,111,23,3,3,"Slide84.bmp",2473,False
20,1,1,112,24,3,3,"Slide85.bmp",1747,False
20,1,1,113,94,2,2,"b28.bmp",2530,False
20,1,1,114,95,5,5,"Slide86.bmp",1531,False
20,1,1,115,96,9,9,"Slide87.bmp",1363,False
20,1,1,116,97,9,9,"Slide88.bmp",1709,False
20,1,1,129,83,1,1,"b32.bmp",3043,True
20,1,1,130,84,9,9,"Slide98.bmp",1298,False
20,1,1,131,85,1,1,"Slide99.bmp",753,True
20,1,1,132,86,4,4,"Slide100.bmp",4157,False
20,1,1,133,127,2,2,"b33.bmp",3901,False
20,1,1,134,128,9,9,"Slide101.bmp",1551,False
20,1,1,135,129,5,5,"Slide102.bmp",1999,False
20,1,1,136,130,3,3,"Slide103.bmp",777,False
20,1,1,137,17,1,1,"b34.bmp",5103,True
20,1,1,138,18,9,9,"Slide104.bmp",1434,False
20,1,1,139,19,1,1,"Slide105.bmp",1573,True
20,1,1,140,20,1,1,"Slide106.bmp",611,True
20,1,1,141,31,1,1,"b35.bmp",5983,True
20,1,1,142,32,9,9,"Slide107.bmp",1730,False
20,1,1,143,33,1,1,"Slide108.bmp",309,True
20,1,1,144,34,1,1,"Slide109.bmp",1149,True
20,1,1,149,158,0,,"",0,False
20,1,1,157,105,9,9,"Slide119.bmp",2295,False
20,1,1,158,106,1,1,"Slide120.bmp",1561,True
20,1,1,159,107,3,3,"Slide121.bmp",3066,False
20,1,1,166,155,5,5,"Slide128.bmp",3372,False
20,1,1,167,156,9,9,"Slide129.bmp",1113,False
20,1,1,168,157,9,9,"Slide130.bmp",597,False
20,1,1,169,67,9,9,"Slide131.bmp",1374,False
20,1,1,170,68,1,1,"Slide132.bmp",1017,True
20,1,1,171,69,1,1,"Slide133.bmp",414,True
20,1,1,175,42,9,9,"Slide137.bmp",2023,False
20,1,1,176,43,1,1,"Slide138.bmp",1190,True
20,1,1,177,44,2,2,"Slide139.bmp",3841,False
20,1,1,181,60,1,1,"Slide143.bmp",3467,True
20,1,1,182,61,9,9,"Slide144.bmp",1819,False
20,1,1,183,62,9,9,"Slide145.bmp",1712,False
20,1,1,184,142,5,5,"Slide146.bmp",2305,False
20,1,1,185,143,9,9,"Slide147.bmp",2128,False
20,1,1,186,144,9,9,"Slide148.bmp",454,False
20,1,1,187,35,5,5,"Slide149.bmp",5885,False
20,1,1,188,36,5,5,"Slide150.bmp",2130,False
20,1,1,189,37,8,8,"Slide151.bmp",2409,False
20,1,1,193,152,5,5,"Slide155.bmp",4326,False
20,1,1,194,153,9,9,"Slide156.bmp",959,False
20,1,1,195,154,9,9,"Slide157.bmp",246,False
20,1,1,199,74,5,5,"Slide161.bmp",1871,False
20,1,1,200,75,9,9,"Slide162.bmp",2185,False
20,1,1,201,76,9,9,"Slide163.bmp",1319,False
20,1,1,202,112,5,5,"Slide164.bmp",2625,False
20,1,1,203,113,9,9,"Slide165.bmp",1315,False
20,1,1,204,114,9,9,"Slide166.bmp",171,False
20,1,1,205,80,5,5,"Slide167.bmp",2715,False
20,1,1,206,81,9,9,"Slide168.bmp",2324,False
20,1,1,207,82,9,9,"Slide169.bmp",1137,False
20,1,1,211,139,5,5,"Slide173.bmp",2859,False
20,1,1,212,140,9,9,"Slide174.bmp",2044,False
20,1,1,213,141,9,9,"Slide175.bmp",968,False
20,1,1,214,102,5,5,"Slide176.bmp",2689,False
20,1,1,215,103,9,9,"Slide177.bmp",2105,False
20,1,1,216,104,9,9,"Slide178.bmp",403,False
20,1,1,223,87,9,9,"Slide185.bmp",2716,False
20,1,1,224,88,1,1,"Slide186.bmp",1107,True
20,1,1,225,89,4,4,"Slide187.bmp",2029,False
20,1,1,226,149,9,9,"Slide188.bmp",1844,False
20,1,1,227,150,2,2,"Slide189.bmp",1763,False
20,1,1,228,151,4,4,"Slide190.bmp",2163,False
20,1,1,232,77,9,9,"Slide194.bmp",1978,False
20,1,1,233,78,5,5,"Slide195.bmp",1904,False
20,1,1,234,79,9,9,"Slide196.bmp",1906,False
20,1,1,235,28,9,9,"Slide197.bmp",2500,False
20,1,1,236,29,3,3,"Slide198.bmp",3450,False
20,1,1,237,30,7,7,"Slide199.bmp",7640,False
20,1,1,238,49,9,9,"Slide200.bmp",5203,False
20,1,1,239,50,3,3,"Slide201.bmp",1763,False
20,1,1,240,51,8,8,"Slide202.bmp",2260,False
20,1,1,241,25,9,9,"Slide203.bmp",7025,False
20,1,1,242,26,7,7,"Slide204.bmp",4555,False
20,1,1,243,27,3,3,"Slide205.bmp",3534,False
Subj,Cond,Block,Trial,Order,Resp,Name,Stim,RT,Correct
21,1,1,1,1,205,RIGHT,"Slide1.bmp",53319,True
21,1,1,2,2,205,RIGHT,"Slide2.bmp",45625,True
21,1,1,3,3,205,RIGHT,"Slide3.bmp",14804,True
21,1,1,4,4,205,RIGHT,"Slide4.bmp",50742,True
21,1,1,5,5,205,RIGHT,"b1.bmp",8582,True
21,1,1,6,6,205,RIGHT,"Slide5.bmp",1329,True
21,1,1,7,7,2,2,"b2.bmp",8863,False
21,1,1,8,8,7,7,"Slide6.bmp",6703,False
21,1,1,9,9,7,7,"Slide7.bmp",7458,False
21,1,1,10,10,7,7,"Slide8.bmp",6461,False
21,1,1,11,11,205,RIGHT,"Slide9.bmp",6084,True
21,1,1,12,12,205,RIGHT,"Slide10.bmp",5599,True
21,1,1,21,16,2,2,"b5.bmp",12281,False
21,1,1,22,17,6,6,"Slide17.bmp",6104,False
21,1,1,23,18,8,8,"Slide18.bmp",7060,False
21,1,1,24,19,8,8,"Slide19.bmp",3942,False
21,1,1,45,68,2,2,"b11.bmp",4314,False
21,1,1,46,69,5,5,"Slide35.bmp",64140,False
21,1,1,47,70,8,8,"Slide36.bmp",2947,False
21,1,1,48,71,7,7,"Slide37.bmp",2321,False
21,1,1,77,40,2,2,"b19.bmp",7875,False
21,1,1,78,41,6,6,"Slide59.bmp",20015,False
21,1,1,79,42,7,7,"Slide60.bmp",3375,False
21,1,1,80,43,7,7,"Slide61.bmp",1910,False
21,1,1,89,51,1,1,"b22.bmp",5447,True
21,1,1,90,52,5,5,"Slide68.bmp",6257,False
21,1,1,91,53,6,6,"Slide69.bmp",4893,False
21,1,1,92,54,7,7,"Slide70.bmp",1751,False
21,1,1,97,58,1,1,"b24.bmp",3090,True
21,1,1,98,59,7,7,"Slide74.bmp",2897,False
21,1,1,99,60,5,5,"Slide75.bmp",3093,False
21,1,1,100,61,7,7,"Slide76.bmp",2664,False
21,1,1,113,81,2,2,"b28.bmp",3721,False
21,1,1,114,82,4,4,"Slide86.bmp",3224,False
21,1,1,115,83,4,4,"Slide87.bmp",2059,False
21,1,1,116,84,9,9,"Slide88.bmp",2066,False
21,1,1,117,20,2,2,"b29.bmp",12725,False
21,1,1,118,21,9,9,"Slide89.bmp",4889,False
21,1,1,119,22,5,5,"Slide90.bmp",2293,False
21,1,1,120,23,5,5,"Slide91.bmp",2307,False
21,1,1,125,47,2,2,"b31.bmp",7025,False
21,1,1,126,48,5,5,"Slide95.bmp",10275,False
21,1,1,127,49,7,7,"Slide96.bmp",5288,False
21,1,1,128,50,8,8,"Slide97.bmp",3726,False
21,1,1,129,30,1,1,"b32.bmp",13091,True
21,1,1,130,31,7,7,"Slide98.bmp",6089,False
21,1,1,131,32,7,7,"Slide99.bmp",1988,False
21,1,1,132,33,7,7,"Slide100.bmp",1631,False
21,1,1,133,85,2,2,"b33.bmp",2941,False
21,1,1,134,86,5,5,"Slide101.bmp",1460,False
21,1,1,135,87,5,5,"Slide102.bmp",488,False
21,1,1,136,88,7,7,"Slide103.bmp",1840,False
21,1,1,153,89,0,,"",0,False
21,1,1,157,78,8,8,"Slide119.bmp",9951,False
21,1,1,158,79,3,3,"Slide120.bmp",2615,False
21,1,1,159,80,5,5,"Slide121.bmp",2086,False
21,1,1,163,44,7,7,"Slide125.bmp",6170,False
21,1,1,164,45,5,5,"Slide126.bmp",4746,False
21,1,1,165,46,6,6,"Slide127.bmp",2233,False
21,1,1,166,13,5,5,"Slide128.bmp",6636,False
21,1,1,167,14,8,8,"Slide129.bmp",4682,False
21,1,1,168,15,5,5,"Slide130.bmp",9129,False
21,1,1,178,55,5,5,"Slide140.bmp",3581,False
21,1,1,179,56,9,9,"Slide141.bmp",1221,False
21,1,1,180,57,9,9,"Slide142.bmp",1078,False
21,1,1,184,72,3,3,"Slide146.bmp",5757,False
21,1,1,185,73,7,7,"Slide147.bmp",2415,False
21,1,1,186,74,9,9,"Slide148.bmp",5388,False
21,1,1,193,75,5,5,"Slide155.bmp",5613,False
21,1,1,194,76,9,9,"Slide156.bmp",3296,False
21,1,1,195,77,9,9,"Slide157.bmp",776,False
21,1,1,196,24,9,9,"Slide158.bmp",7905,False
21,1,1,197,25,9,9,"Slide159.bmp",1558,False
21,1,1,198,26,9,9,"Slide160.bmp",1730,False
21,1,1,205,37,8,8,"Slide167.bmp",5396,False
21,1,1,206,38,5,5,"Slide168.bmp",3073,False
21,1,1,207,39,5,5,"Slide169.bmp",2777,False
21,1,1,208,34,9,9,"Slide170.bmp",2529,False
21,1,1,209,35,3,3,"Slide171.bmp",3304,False
21,1,1,210,36,3,3,"Slide172.bmp",2052,False
21,1,1,223,62,9,9,"Slide185.bmp",4300,False
21,1,1,224,63,3,3,"Slide186.bmp",2850,False
21,1,1,225,64,2,2,"Slide187.bmp",3839,False
21,1,1,226,65,9,9,"Slide188.bmp",2694,False
21,1,1,227,66,3,3,"Slide189.bmp",2216,False
21,1,1,228,67,1,1,"Slide190.bmp",7037,True
21,1,1,238,27,9,9,"Slide200.bmp",3364,False
21,1,1,239,28,5,5,"Slide201.bmp",3030,False
21,1,1,240,29,3,3,"Slide202.bmp",2946,False
Subj,Cond,Block,Trial,Order,Resp,Name,Stim,RT,Correct
22,1,1,1,1,57,SPACE,"Slide1.bmp",13174,True
22,1,1,2,2,57,SPACE,"Slide2.bmp",409,True
22,1,1,3,3,57,SPACE,"Slide3.bmp",303,True
22,1,1,4,4,57,SPACE,"Slide4.bmp",779,True
22,1,1,5,5,57,SPACE,"b1.bmp",1594,True
22,1,1,6,6,57,SPACE,"Slide5.bmp",750,True
22,1,1,7,7,2,2,"b2.bmp",2570,False
22,1,1,8,8,8,8,"Slide6.bmp",3158,False
22,1,1,9,9,3,3,"Slide7.bmp",1086,False
22,1,1,10,10,5,5,"Slide8.bmp",326,False
22,1,1,11,11,57,SPACE,"Slide9.bmp",205,True
22,1,1,12,12,57,SPACE,"Slide10.bmp",174,True
22,1,1,13,51,1,1,"b3.bmp",3054,True
22,1,1,14,52,4,4,"Slide11.bmp",22541,False
22,1,1,15,53,1,1,"Slide12.bmp",1076,True
22,1,1,16,54,5,5,"Slide13.bmp",2346,False
22,1,1,17,186,1,1,"b4.bmp",4641,True
22,1,1,18,187,8,8,"Slide14.bmp",2021,False
22,1,1,19,188,3,3,"Slide15.bmp",1234,False
22,1,1,20,189,2,2,"Slide16.bmp",1611,False
22,1,1,21,39,2,2,"b5.bmp",3043,False
22,1,1,22,40,4,4,"Slide17.bmp",4901,False
22,1,1,23,41,2,2,"Slide18.bmp",2718,False
22,1,1,24,42,9,9,"Slide19.bmp",1908,False
22,1,1,25,111,2,2,"b6.bmp",5260,False
22,1,1,26,112,5,5,"Slide20.bmp",2140,False
22,1,1,27,113,4,4,"Slide21.bmp",1695,False
22,1,1,28,114,7,7,"Slide22.bmp",2236,False
22,1,1,29,66,1,1,"b7.bmp",1744,True
22,1,1,30,67,5,5,"Slide23.bmp",7903,False
22,1,1,31,68,2,2,"Slide24.bmp",1648,False
22,1,1,32,69,5,5,"Slide25.bmp",2296,False
22,1,1,33,236,2,2,"b8.bmp",5108,False
22,1,1,34,237,5,5,"Slide26.bmp",1198,False
22,1,1,35,238,2,2,"Slide27.bmp",1356,False
22,1,1,36,239,5,5,"Slide28.bmp",2148,False
22,1,1,37,208,2,2,"b9.bmp",3871,False
22,1,1,38,209,5,5,"Slide29.bmp",1121,False
22,1,1,39,210,5,5,"Slide30.bmp",180,False
22,1,1,40,211,5,5,"Slide31.bmp",378,False
22,1,1,41,78,2,2,"b10.bmp",3258,False
22,1,1,42,79,5,5,"Slide32.bmp",2739,False
22,1,1,43,80,2,2,"Slide33.bmp",1156,False
22,1,1,44,81,9,9,"Slide34.bmp",1602,False
22,1,1,45,70,1,1,"b11.bmp",4267,True
22,1,1,46,71,8,8,"Slide35.bmp",2534,False
22,1,1,47,72,3,3,"Slide36.bmp",3945,False
22,1,1,48,73,5,5,"Slide37.bmp",3558,False
22,1,1,49,204,1,1,"b12.bmp",3898,True
22,1,1,50,205,5,5,"Slide38.bmp",1747,False
22,1,1,51,206,3,3,"Slide39.bmp",1216,False
22,1,1,52,207,5,5,"Slide40.bmp",1298,False
22,1,1,53,74,1,1,"b13.bmp",5314,True
22,1,1,54,75,5,5,"Slide41.bmp",1882,False
22,1,1,55,76,1,1,"Slide42.bmp",1218,True
22,1,1,56,77,1,1,"Slide43.bmp",1553,True
22,1,1,57,115,2,2,"b14.bmp",1503,False
22,1,1,58,116,7,7,"Slide44.bmp",1407,False
22,1,1,59,117,3,3,"Slide45.bmp",1053,False
22,1,1,60,118,1,1,"Slide46.bmp",2655,True
22,1,1,61,162,2,2,"b15.bmp",2912,False
22,1,1,62,163,5,5,"Slide47.bmp",2628,False
22,1,1,63,164,2,2,"Slide48.bmp",1037,False
22,1,1,64,165,5,5,"Slide49.bmp",2335,False
22,1,1,65,35,2,2,"b16.bmp",2981,False
22,1,1,66,36,4,4,"Slide50.bmp",9428,False
22,1,1,67,37,2,2,"Slide51.bmp",1697,False
22,1,1,68,38,9,9,"Slide52.bmp",1972,False
22,1,1,69,158,2,2,"b17.bmp",4008,False
22,1,1,70,159,9,9,"Slide53.bmp",477,False
22,1,1,71,160,2,2,"Slide54.bmp",4301,False
22,1,1,72,161,1,1,"Slide55.bmp",2591,True
22,1,1,73,126,2,2,"b18.bmp",1806,False
22,1,1,74,127,4,4,"Slide56.bmp",6368,False
22,1,1,75,128,2,2,"Slide57.bmp",5525,False
22,1,1,76,129,9,9,"Slide58.bmp",2234,False
22,1,1,77,229,2,2,"b19.bmp",7822,False
22,1,1,78,230,5,5,"Slide59.bmp",2046,False
22,1,1,79,231,2,2,"Slide60.bmp",896,False
22,1,1,80,232,8,8,"Slide61.bmp",1114,False
22,1,1,81,97,1,1,"b20.bmp",1632,True
22,1,1,82,98,5,5,"Slide62.bmp",1062,False
22,1,1,83,99,2,2,"Slide63.bmp",1961,False
22,1,1,84,100,9,9,"Slide64.bmp",945,False
22,1,1,85,194,1,1,"b21.bmp",7881,True
22,1,1,86,195,8,8,"Slide65.bmp",6260,False
22,1,1,87,196,2,2,"Slide66.bmp",2185,False
22,1,1,88,197,1,1,"Slide67.bmp",3160,True
22,1,1,89,17,1,1,"b22.bmp",2488,True
22,1,1,90,18,5,5,"Slide68.bmp",2198,False
22,1,1,91,19,2,2,"Slide69.bmp",1235,False
22,1,1,92,20,7,7,"Slide70.bmp",1812,False
22,1,1,93,13,1,1,"b23.bmp",1889,True
22,1,1,94,14,7,7,"Slide71.bmp",2893,False
22,1,1,95,15,1,1,"Slide72.bmp",1257,True
22,1,1,96,16,7,7,"Slide73.bmp",2789,False
22,1,1,97,59,1,1,"b24.bmp",1580,True
22,1,1,98,60,3,3,"Slide74.bmp",2395,False
22,1,1,99,61,3,3,"Slide75.bmp",1010,False
22,1,1,100,62,9,9,"Slide76.bmp",1414,False
22,1,1,101,119,2,2,"b25.bmp",1721,False
22,1,1,102,120,9,9,"Slide77.bmp",2885,False
22,1,1,103,121,1,1,"Slide78.bmp",4115,True
22,1,1,104,122,1,1,"Slide79.bmp",2065,True
22,1,1,105,47,1,1,"b26.bmp",2435,True
22,1,1,106,48,1,1,"Slide80.bmp",363,True
22,1,1,107,49,1,1,"Slide81.bmp",237,True
22,1,1,108,50,9,9,"Slide82.bmp",1709,False
22,1,1,109,55,2,2,"b27.bmp",1810,False
22,1,1,110,56,2,2,"Slide83.bmp",1752,False
22,1,1,111,57,2,2,"Slide84.bmp",273,False
22,1,1,112,58,6,6,"Slide85.bmp",2490,False
22,1,1,113,28,2,2,"b28.bmp",1593,False
22,1,1,114,29,1,1,"Slide86.bmp",1468,True
22,1,1,115,30,1,1,"Slide87.bmp",403,True
22,1,1,116,31,9,9,"Slide88.bmp",1029,False
22,1,1,117,104,2,2,"b29.bmp",4523,False
22,1,1,118,105,2,2,"Slide89.bmp",2983,False
22,1,1,119,106,9,9,"Slide90.bmp",1585,False
22,1,1,120,107,5,5,"Slide91.bmp",1821,False
22,1,1,121,179,2,2,"b30.bmp",2059,False
22,1,1,122,180,1,1,"Slide92.bmp",2274,True
22,1,1,123,181,1,1,"Slide93.bmp",545,True
22,1,1,124,182,9,9,"Slide94.bmp",2419,False
22,1,1,125,190,1,1,"b31.bmp",2459,True
22,1,1,126,191,5,5,"Slide95.bmp",1762,False
22,1,1,127,192,3,3,"Slide96.bmp",1305,False
22,1,1,128,193,5,5,"Slide97.bmp",1233,False
22,1,1,129,43,2,2,"b32.bmp",1353,False
22,1,1,130,44,9,9,"Slide98.bmp",328,False
22,1,1,131,45,2,2,"Slide99.bmp",2334,False
22,1,1,132,46,1,1,"Slide100.bmp",1686,True
22,1,1,133,166,2,2,"b33.bmp",2182,False
22,1,1,134,167,9,9,"Slide101.bmp",1632,False
22,1,1,135,168,1,1,"Slide102.bmp",1823,True
22,1,1,136,169,1,1,"Slide103.bmp",1276,True
22,1,1,137,21,2,2,"b34.bmp",1639,False
22,1,1,138,22,9,9,"Slide104.bmp",3326,False
22,1,1,139,23,3,3,"Slide105.bmp",2295,False
22,1,1,140,24,1,1,"Slide106.bmp",2461,True
22,1,1,141,225,1,1,"b35.bmp",1659,True
22,1,1,142,226,8,8,"Slide107.bmp",3590,False
22,1,1,143,227,2,2,"Slide108.bmp",1090,False
22,1,1,144,228,1,1,"Slide109.bmp",801,True
22,1,1,145,133,2,2,"b36.bmp",4181,False
22,1,1,146,134,9,9,"Slide110.bmp",1736,False
22,1,1,147,135,1,1,"Slide111.bmp",510,True
22,1,1,148,136,1,1,"Slide112.bmp",1702,True
22,1,1,149,215,2,2,"b37.bmp",85218,False
22,1,1,150,216,9,9,"Slide113.bmp",11883,False
22,1,1,151,217,2,2,"Slide114.bmp",3337,False
22,1,1,152,218,1,1,"Slide115.bmp",1875,True
22,1,1,153,240,2,2,"b38.bmp",3637,False
22,1,1,154,241,9,9,"Slide116.bmp",5222,False
22,1,1,155,242,1,1,"Slide117.bmp",1383,True
22,1,1,156,243,1,1,"Slide118.bmp",1457,True
22,1,1,157,233,9,9,"Slide119.bmp",1751,False
22,1,1,158,234,2,2,"Slide120.bmp",1862,False
22,1,1,159,235,1,1,"Slide121.bmp",1747,True
22,1,1,160,219,9,9,"Slide122.bmp",2146,False
22,1,1,161,220,1,1,"Slide123.bmp",1011,True
22,1,1,162,221,1,1,"Slide124.bmp",2078,True
22,1,1,163,101,9,9,"Slide125.bmp",1906,False
22,1,1,164,102,1,1,"Slide126.bmp",2457,True
22,1,1,165,103,9,9,"Slide127.bmp",574,False
22,1,1,166,176,5,5,"Slide128.bmp",8460,False
22,1,1,167,177,5,5,"Slide129.bmp",325,False
22,1,1,168,178,5,5,"Slide130.bmp",656,False
22,1,1,169,32,9,9,"Slide131.bmp",1546,False
22,1,1,170,33,2,2,"Slide132.bmp",1175,False
22,1,1,171,34,1,1,"Slide133.bmp",1551,True
22,1,1,172,94,9,9,"Slide134.bmp",1938,False
22,1,1,173,95,1,1,"Slide135.bmp",1295,True
22,1,1,174,96,1,1,"Slide136.bmp",374,True
22,1,1,175,173,8,8,"Slide137.bmp",2815,False
22,1,1,176,174,2,2,"Slide138.bmp",1492,False
22,1,1,177,175,3,3,"Slide139.bmp",3087,False
22,1,1,178,152,5,5,"Slide140.bmp",2665,False
22,1,1,179,153,5,5,"Slide141.bmp",396,False
22,1,1,180,154,9,9,"Slide142.bmp",802,False
22,1,1,181,130,5,5,"Slide143.bmp",3183,False
22,1,1,182,131,5,5,"Slide144.bmp",658,False
22,1,1,183,132,5,5,"Slide145.bmp",865,False
22,1,1,184,143,5,5,"Slide146.bmp",1944,False
22,1,1,185,144,7,7,"Slide147.bmp",1379,False
22,1,1,186,145,5,5,"Slide148.bmp",1512,False
22,1,1,187,88,3,3,"Slide149.bmp",4190,False
22,1,1,188,89,9,9,"Slide150.bmp",1481,False
22,1,1,189,90,7,7,"Slide151.bmp",2993,False
22,1,1,190,198,5,5,"Slide152.bmp",2062,False
22,1,1,191,199,5,5,"Slide153.bmp",1554,False
22,1,1,192,200,5,5,"Slide154.bmp",1359,False
22,1,1,193,108,1,1,"Slide155.bmp",1848,True
22,1,1,194,109,1,1,"Slide156.bmp",568,True
22,1,1,195,110,1,1,"Slide157.bmp",3827,True
22,1,1,196,222,5,5,"Slide158.bmp",3223,False
22,1,1,197,223,5,5,"Slide159.bmp",168,False
22,1,1,198,224,5,5,"Slide160.bmp",1724,False
22,1,1,199,140,5,5,"Slide161.bmp",2292,False
22,1,1,200,141,5,5,"Slide162.bmp",242,False
22,1,1,201,142,5,5,"Slide163.bmp",2983,False
22,1,1,202,137,9,9,"Slide164.bmp",2797,False
22,1,1,203,138,2,2,"Slide165.bmp",1572,False
22,1,1,204,139,1,1,"Slide166.bmp",1548,True
22,1,1,205,155,8,8,"Slide167.bmp",4432,False
22,1,1,206,156,2,2,"Slide168.bmp",1258,False
22,1,1,207,157,1,1,"Slide169.bmp",2225,True
22,1,1,208,212,9,9,"Slide170.bmp",1760,False
22,1,1,209,213,3,3,"Slide171.bmp",972,False
22,1,1,210,214,3,3,"Slide172.bmp",1631,False
22,1,1,211,170,9,9,"Slide173.bmp",1703,False
22,1,1,212,171,1,1,"Slide174.bmp",636,True
22,1,1,213,172,1,1,"Slide175.bmp",282,True
22,1,1,214,91,8,8,"Slide176.bmp",3861,False
22,1,1,215,92,3,3,"Slide177.bmp",2492,False
22,1,1,216,93,1,1,"Slide178.bmp",4448,True
22,1,1,217,82,9,9,"Slide179.bmp",1574,False
22,1,1,218,83,3,3,"Slide180.bmp",450,False
22,1,1,219,84,1,1,"Slide181.bmp",1945,True
22,1,1,220,123,9,9,"Slide182.bmp",1835,False
22,1,1,221,124,2,2,"Slide183.bmp",1233,False
22,1,1,222,125,1,1,"Slide184.bmp",869,True
22,1,1,223,201,9,9,"Slide185.bmp",1762,False
22,1,1,224,202,2,2,"Slide186.bmp",595,False
22,1,1,225,203,1,1,"Slide187.bmp",1663,True
22,1,1,226,25,9,9,"Slide188.bmp",1991,False
22,1,1,227,26,3,3,"Slide189.bmp",6321,False
22,1,1,228,27,1,1,"Slide190.bmp",2525,True
22,1,1,229,149,9,9,"Slide191.bmp",1971,False
22,1,1,230,150,3,3,"Slide192.bmp",1241,False
22,1,1,231,151,1,1,"Slide193.bmp",517,True
22,1,1,232,63,9,9,"Slide194.bmp",2427,False
22,1,1,233,64,4,4,"Slide195.bmp",1812,False
22,1,1,234,65,1,1,"Slide196.bmp",1810,True
22,1,1,235,183,9,9,"Slide197.bmp",3234,False
22,1,1,236,184,5,5,"Slide198.bmp",1934,False
22,1,1,237,185,5,5,"Slide199.bmp",2089,False
22,1,1,238,146,9,9,"Slide200.bmp",2717,False
22,1,1,239,147,6,6,"Slide201.bmp",2354,False
22,1,1,240,148,5,5,"Slide202.bmp",2966,False
22,1,1,241,85,9,9,"Slide203.bmp",3011,False
22,1,1,242,86,4,4,"Slide204.bmp",4752,False
22,1,1,243,87,1,1,"Slide205.bmp",3176,True
22,1,1,244,244,1,1,"Slide206.bmp",1753,True
22,1,1,245,245,8,8,"Slide207.bmp",2910,False
22,1,1,246,246,5,5,"Slide208.bmp",2318,False
22,1,1,247,247,1,1,"Slide209.bmp",2690,True
22,1,1,248,248,5,5,"Slide210.bmp",1269,False
22,1,1,249,249,5,5,"Slide211.bmp",1934,False
22,1,1,250,250,2,2,"Slide212.bmp",1920,False
22,1,1,251,251,7,7,"Slide213.bmp",1899,False
22,1,1,252,252,5,5,"Slide214.bmp",1285,False
22,1,1,253,253,1,1,"Slide215.bmp",1474,True
22,1,1,254,254,5,5,"Slide216.bmp",2003,False
22,1,1,255,255,5,5,"Slide217.bmp",947,False
22,1,1,256,256,1,1,"Slide218.bmp",1563,True
22,1,1,257,257,1,1,"Slide219.bmp",804,True
22,1,1,258,258,9,9,"Slide220.bmp",1622,False
22,1,1,259,259,6,6,"Slide221.bmp",3791,False
22,1,1,260,260,1,1,"Slide222.bmp",8924,True
22,1,1,261,261,9,9,"Slide223.bmp",2584,False
22,1,1,262,262,57,SPACE,"Slide224.bmp",25740,True
Subj,Cond,Block,Trial,Order,Resp,Name,Stim,RT,Correct
23,1,1,1,1,57,SPACE,"Slide1.bmp",36199,True
23,1,1,2,2,57,SPACE,"Slide2.bmp",35856,True
23,1,1,3,3,57,SPACE,"Slide3.bmp",7240,True
23,1,1,4,4,57,SPACE,"Slide4.bmp",12425,True
23,1,1,5,5,57,SPACE,"b1.bmp",3536,True
23,1,1,6,6,57,SPACE,"Slide5.bmp",1402,True
23,1,1,7,7,1,1,"b2.bmp",25541,True
23,1,1,8,8,7,7,"Slide6.bmp",8338,False
23,1,1,9,9,5,5,"Slide7.bmp",4432,False
23,1,1,10,10,5,5,"Slide8.bmp",5571,False
