Subj,Cond,Block,Trial,Order,Resp,Name,Stim,RT,load,maspref,vmaspref,nfcp,nfcn,fii,icp,icn,nfc,ic
,,,,,,,,,,,,,,,,,,
1,1,1,66,41,4,4,Slide32.bmp,1764,6,0,6,5,7,17,19,9,-2,10
,,,,,,,,,,,,,,,,,,
1,1,1,23,38,5,5,Slide22.bmp,3683,6,5,0,5,7,17,19,9,-2,10
,,,,,,,,,,,,,,,,,,
1,1,1,24,37,3,3,Slide23.bmp,3796,6,7,0,5,7,17,19,9,-2,10
,,,,,,,,,,,,,,,,,,
1,1,1,40,25,3,3,Slide32.bmp,1678,4,0,7,5,7,17,19,9,-2,10
,,,,,,,,,,,,,,,,,,
1,1,1,63,22,3,3,Slide29.bmp,8981,4,7,0,5,7,17,19,9,-2,10
,,,,,,,,,,,,,,,,,,
1,1,1,36,21,6,6,Slide24.bmp,7449,4,6,0,5,7,17,19,9,-2,10
,,,,,,,,,,,,,,,,,,
1,1,1,27,17,3,3,Slide32.bmp,3280,1,0,3,5,7,17,19,9,-2,10
,,,,,,,,,,,,,,,,,,
1,1,1,49,14,6,6,Slide26.bmp,3992,1,6,0,5,7,17,19,9,-2,10
,,,,,,,,,,,,,,,,,,
1,1,1,10,13,3,3,Slide20.bmp,6336,1,3,0,5,7,17,19,9,-2,10
,,,,,,,,,,,,,,,,,,
1,1,1,14,9,5,5,Slide32.bmp,2554,7,0,5,5,7,17,19,9,-2,10
,,,,,,,,,,,,,,,,,,
1,1,1,62,6,7,7,Slide28.bmp,5494,7,7,0,5,7,17,19,9,-2,10
,,,,,,,,,,,,,,,,,,
1,1,1,11,5,8,8,Slide21.bmp,8713,7,2,0,5,7,17,19,9,-2,10
,,,,,,,,,,,,,,,,,,
2,1,1,66,41,4,4,Slide32.bmp,1689,2,0,6,8,5,20,17,13,3,4
,,,,,,,,,,,,,,,,,,
2,1,1,50,38,6,6,Slide27.bmp,10428,2,4,0,8,5,20,17,13,3,4
,,,,,,,,,,,,,,,,,,
2,1,1,23,37,6,6,Slide22.bmp,5157,2,6,0,8,5,20,17,13,3,4
,,,,,,,,,,,,,,,,,,
2,1,1,53,33,6,6,Slide32.bmp,635,6,0,6,8,5,20,17,13,3,4
,,,,,,,,,,,,,,,,,,
2,1,1,62,30,8,8,Slide28.bmp,4366,6,8,0,8,5,20,17,13,3,4
,,,,,,,,,,,,,,,,,,
2,1,1,49,29,7,7,Slide26.bmp,5743,6,7,0,8,5,20,17,13,3,4
,,,,,,,,,,,,,,,,,,
2,1,1,40,25,2,2,Slide32.bmp,860,1,0,8,8,5,20,17,13,3,4
,,,,,,,,,,,,,,,,,,
2,1,1,24,22,3,3,Slide23.bmp,2132,1,7,0,8,5,20,17,13,3,4
,,,,,,,,,,,,,,,,,,
2,1,1,63,21,2,2,Slide29.bmp,4414,1,8,0,8,5,20,17,13,3,4
,,,,,,,,,,,,,,,,,,
2,1,1,27,17,7,7,Slide32.bmp,1886,4,0,7,8,5,20,17,13,3,4
,,,,,,,,,,,,,,,,,,
2,1,1,10,14,7,7,Slide20.bmp,7425,4,7,0,8,5,20,17,13,3,4
,,,,,,,,,,,,,,,,,,
2,1,1,11,13,3,3,Slide21.bmp,5220,4,7,0,8,5,20,17,13,3,4
,,,,,,,,,,,,,,,,,,
3,1,1,66,41,5,5,Slide32.bmp,2347,6,0,5,7,7,25,13,15,0,-2
,,,,,,,,,,,,,,,,,,
3,1,1,11,38,7,7,Slide21.bmp,2334,6,3,0,7,7,25,13,15,0,-2
,,,,,,,,,,,,,,,,,,
3,1,1,37,37,3,3,Slide25.bmp,3544,6,7,0,7,7,25,13,15,0,-2
,,,,,,,,,,,,,,,,,,
3,1,1,53,33,8,8,Slide32.bmp,1508,2,0,8,7,7,25,13,15,0,-2
,,,,,,,,,,,,,,,,,,
3,1,1,50,30,6,6,Slide27.bmp,5275,2,4,0,7,7,25,13,15,0,-2
,,,,,,,,,,,,,,,,,,
3,1,1,63,29,9,9,Slide29.bmp,2121,2,1,0,7,7,25,13,15,0,-2
,,,,,,,,,,,,,,,,,,
3,1,1,27,17,4,4,Slide32.bmp,5041,1,0,4,7,7,25,13,15,0,-2
,,,,,,,,,,,,,,,,,,
3,1,1,36,14,8,8,Slide24.bmp,5517,1,8,0,7,7,25,13,15,0,-2
,,,,,,,,,,,,,,,,,,
3,1,1,62,13,9,9,Slide28.bmp,6496,1,9,0,7,7,25,13,15,0,-2
,,,,,,,,,,,,,,,,,,
3,1,1,14,9,7,7,Slide32.bmp,3142,7,0,3,7,7,25,13,15,0,-2
,,,,,,,,,,,,,,,,,,
3,1,1,10,6,4,4,Slide20.bmp,6450,7,4,0,7,7,25,13,15,0,-2
,,,,,,,,,,,,,,,,,,
3,1,1,49,5,6,6,Slide26.bmp,14634,7,6,0,7,7,25,13,15,0,-2
,,,,,,,,,,,,,,,,,,
4,1,1,53,33,8,8,Slide32.bmp,347,4,0,8,7,6,19,15,15,1,0
,,,,,,,,,,,,,,,,,,
4,1,1,11,30,3,3,Slide21.bmp,5667,4,7,0,7,6,19,15,15,1,0
,,,,,,,,,,,,,,,,,,
4,1,1,63,29,8,8,Slide29.bmp,6356,4,2,0,7,6,19,15,15,1,0
,,,,,,,,,,,,,,,,,,
4,1,1,40,25,3,3,Slide32.bmp,2710,6,0,7,7,6,19,15,15,1,0
,,,,,,,,,,,,,,,,,,
4,1,1,10,22,2,2,Slide20.bmp,1435,6,2,0,7,6,19,15,15,1,0
,,,,,,,,,,,,,,,,,,
4,1,1,62,21,8,8,Slide28.bmp,1641,6,8,0,7,6,19,15,15,1,0
,,,,,,,,,,,,,,,,,,
4,1,1,27,17,3,3,Slide32.bmp,1196,1,0,3,7,6,19,15,15,1,0
,,,,,,,,,,,,,,,,,,
4,1,1,24,14,3,3,Slide23.bmp,3461,1,7,0,7,6,19,15,15,1,0
,,,,,,,,,,,,,,,,,,
4,1,1,37,13,3,3,Slide25.bmp,2077,1,7,0,7,6,19,15,15,1,0
,,,,,,,,,,,,,,,,,,
4,1,1,14,9,7,7,Slide32.bmp,2969,2,0,3,7,6,19,15,15,1,0
,,,,,,,,,,,,,,,,,,
4,1,1,23,6,3,3,Slide22.bmp,4284,2,3,0,7,6,19,15,15,1,0
,,,,,,,,,,,,,,,,,,
4,1,1,50,5,6,6,Slide27.bmp,7129,2,4,0,7,6,19,15,15,1,0
,,,,,,,,,,,,,,,,,,
5,1,1,53,33,7,7,Slide32.bmp,635,2,0,7,5,7,22,18,13,-2,5
,,,,,,,,,,,,,,,,,,
5,1,1,62,30,7,7,Slide28.bmp,3225,2,7,0,5,7,22,18,13,-2,5
,,,,,,,,,,,,,,,,,,
5,1,1,50,29,3,3,Slide27.bmp,6090,2,7,0,5,7,22,18,13,-2,5
,,,,,,,,,,,,,,,,,,
5,1,1,40,25,2,2,Slide32.bmp,540,1,0,8,5,7,22,18,13,-2,5
,,,,,,,,,,,,,,,,,,
5,1,1,23,22,5,5,Slide22.bmp,3191,1,5,0,5,7,22,18,13,-2,5
,,,,,,,,,,,,,,,,,,
5,1,1,36,21,6,6,Slide24.bmp,6116,1,6,0,5,7,22,18,13,-2,5
,,,,,,,,,,,,,,,,,,
5,1,1,14,9,7,7,Slide32.bmp,4297,4,0,3,5,7,22,18,13,-2,5
,,,,,,,,,,,,,,,,,,
5,1,1,63,6,2,2,Slide29.bmp,5251,4,8,0,5,7,22,18,13,-2,5
,,,,,,,,,,,,,,,,,,
5,1,1,24,5,5,5,Slide23.bmp,22392,4,5,0,5,7,22,18,13,-2,5
,,,,,,,,,,,,,,,,,,
6,1,1,66,41,3,3,Slide32.bmp,2437,1,0,7,8,3,17,17,13,5,4
,,,,,,,,,,,,,,,,,,
6,1,1,10,38,6,6,Slide20.bmp,3769,1,6,0,8,3,17,17,13,5,4
,,,,,,,,,,,,,,,,,,
6,1,1,24,37,4,4,Slide23.bmp,6445,1,6,0,8,3,17,17,13,5,4
,,,,,,,,,,,,,,,,,,
6,1,1,53,33,9,9,Slide32.bmp,1421,7,0,9,8,3,17,17,13,5,4
,,,,,,,,,,,,,,,,,,
6,1,1,23,30,5,5,Slide22.bmp,3990,7,5,0,8,3,17,17,13,5,4
,,,,,,,,,,,,,,,,,,
6,1,1,37,29,3,3,Slide25.bmp,3590,7,7,0,8,3,17,17,13,5,4
,,,,,,,,,,,,,,,,,,
6,1,1,27,17,9,9,Slide32.bmp,1874,2,0,9,8,3,17,17,13,5,4
,,,,,,,,,,,,,,,,,,
6,1,1,49,14,4,4,Slide26.bmp,9263,2,4,0,8,3,17,17,13,5,4
,,,,,,,,,,,,,,,,,,
6,1,1,36,13,4,4,Slide24.bmp,15218,2,4,0,8,3,17,17,13,5,4
,,,,,,,,,,,,,,,,,,
6,1,1,14,9,9,9,Slide32.bmp,6278,6,0,1,8,3,17,17,13,5,4
,,,,,,,,,,,,,,,,,,
6,1,1,62,6,7,7,Slide28.bmp,8436,6,7,0,8,3,17,17,13,5,4
,,,,,,,,,,,,,,,,,,
6,1,1,11,5,5,5,Slide21.bmp,11666,6,5,0,8,3,17,17,13,5,4
,,,,,,,,,,,,,,,,,,
7,1,1,27,17,9,9,Slide32.bmp,1766,4,0,9,7,8,22,15,13,-1,2
,,,,,,,,,,,,,,,,,,
7,1,1,50,14,4,4,Slide27.bmp,8020,4,6,0,7,8,22,15,13,-1,2
,,,,,,,,,,,,,,,,,,
7,1,1,11,13,6,6,Slide21.bmp,7159,4,4,0,7,8,22,15,13,-1,2
,,,,,,,,,,,,,,,,,,
7,1,1,14,9,9,9,Slide32.bmp,3193,1,0,1,7,8,22,15,13,-1,2
,,,,,,,,,,,,,,,,,,
7,1,1,37,6,2,2,Slide25.bmp,8871,1,8,0,7,8,22,15,13,-1,2
,,,,,,,,,,,,,,,,,,
7,1,1,62,5,8,8,Slide28.bmp,12576,1,8,0,7,8,22,15,13,-1,2
,,,,,,,,,,,,,,,,,,
8,1,1,66,41,3,3,Slide32.bmp,475,4,0,7,9,7,18,16,15,2,1
,,,,,,,,,,,,,,,,,,
8,1,1,63,38,3,3,Slide29.bmp,2274,4,7,0,9,7,18,16,15,2,1
,,,,,,,,,,,,,,,,,,
8,1,1,36,37,6,6,Slide24.bmp,2919,4,6,0,9,7,18,16,15,2,1
,,,,,,,,,,,,,,,,,,
8,1,1,53,33,8,8,Slide32.bmp,690,6,0,8,9,7,18,16,15,2,1
,,,,,,,,,,,,,,,,,,
8,1,1,23,30,5,5,Slide22.bmp,2385,6,5,0,9,7,18,16,15,2,1
,,,,,,,,,,,,,,,,,,
8,1,1,62,29,9,9,Slide28.bmp,1942,6,9,0,9,7,18,16,15,2,1
,,,,,,,,,,,,,,,,,,
8,1,1,40,25,1,1,Slide32.bmp,385,1,0,9,9,7,18,16,15,2,1
,,,,,,,,,,,,,,,,,,
8,1,1,50,22,5,5,Slide27.bmp,5867,1,5,0,9,7,18,16,15,2,1
,,,,,,,,,,,,,,,,,,
8,1,1,37,21,1,1,Slide25.bmp,3525,1,9,0,9,7,18,16,15,2,1
,,,,,,,,,,,,,,,,,,
8,1,1,27,17,7,7,Slide32.bmp,684,2,0,7,9,7,18,16,15,2,1
,,,,,,,,,,,,,,,,,,
8,1,1,11,14,8,8,Slide21.bmp,4591,2,2,0,9,7,18,16,15,2,1
,,,,,,,,,,,,,,,,,,
8,1,1,49,13,2,2,Slide26.bmp,3421,2,2,0,9,7,18,16,15,2,1
,,,,,,,,,,,,,,,,,,
9,1,1,66,41,2,2,Slide32.bmp,601,1,0,8,15,2,25,13,20,13,-7
,,,,,,,,,,,,,,,,,,
9,1,1,63,38,1,1,Slide29.bmp,7238,1,9,0,15,2,25,13,20,13,-7
,,,,,,,,,,,,,,,,,,
9,1,1,23,37,9,9,Slide22.bmp,2523,1,9,0,15,2,25,13,20,13,-7
,,,,,,,,,,,,,,,,,,
9,1,1,53,33,9,9,Slide32.bmp,1553,4,0,9,15,2,25,13,20,13,-7
,,,,,,,,,,,,,,,,,,
9,1,1,50,30,1,1,Slide27.bmp,1566,4,9,0,15,2,25,13,20,13,-7
,,,,,,,,,,,,,,,,,,
9,1,1,36,29,9,9,Slide24.bmp,4161,4,9,0,15,2,25,13,20,13,-7
,,,,,,,,,,,,,,,,,,
9,1,1,27,17,5,5,Slide32.bmp,2596,6,0,5,15,2,25,13,20,13,-7
,,,,,,,,,,,,,,,,,,
9,1,1,11,14,1,1,Slide21.bmp,7381,6,9,0,15,2,25,13,20,13,-7
,,,,,,,,,,,,,,,,,,
9,1,1,62,13,9,9,Slide28.bmp,2555,6,9,0,15,2,25,13,20,13,-7
,,,,,,,,,,,,,,,,,,
9,1,1,14,9,2,2,Slide32.bmp,6751,2,0,8,15,2,25,13,20,13,-7
,,,,,,,,,,,,,,,,,,
9,1,1,49,6,9,9,Slide26.bmp,3912,2,9,0,15,2,25,13,20,13,-7
,,,,,,,,,,,,,,,,,,
9,1,1,37,5,1,1,Slide25.bmp,6221,2,9,0,15,2,25,13,20,13,-7
,,,,,,,,,,,,,,,,,,
10,1,1,53,33,9,9,Slide32.bmp,2521,4,0,9,7,8,23,15,13,-1,2
,,,,,,,,,,,,,,,,,,
10,1,1,23,30,5,5,Slide22.bmp,4753,4,5,0,7,8,23,15,13,-1,2
,,,,,,,,,,,,,,,,,,
10,1,1,24,29,2,2,Slide23.bmp,3538,4,8,0,7,8,23,15,13,-1,2
,,,,,,,,,,,,,,,,,,
10,1,1,40,25,5,5,Slide32.bmp,2909,1,0,5,7,8,23,15,13,-1,2
,,,,,,,,,,,,,,,,,,
10,1,1,36,22,7,7,Slide24.bmp,3816,1,7,0,7,8,23,15,13,-1,2
,,,,,,,,,,,,,,,,,,
10,1,1,49,21,6,6,Slide26.bmp,3599,1,6,0,7,8,23,15,13,-1,2
,,,,,,,,,,,,,,,,,,
10,1,1,27,17,1,1,Slide32.bmp,1266,6,0,1,7,8,23,15,13,-1,2
,,,,,,,,,,,,,,,,,,
10,1,1,11,14,2,2,Slide21.bmp,3516,6,8,0,7,8,23,15,13,-1,2
,,,,,,,,,,,,,,,,,,
10,1,1,37,13,2,2,Slide25.bmp,4299,6,8,0,7,8,23,15,13,-1,2
,,,,,,,,,,,,,,,,,,
10,1,1,14,9,5,5,Slide32.bmp,3549,2,0,5,7,8,23,15,13,-1,2
,,,,,,,,,,,,,,,,,,
10,1,1,50,6,3,3,Slide27.bmp,5616,2,7,0,7,8,23,15,13,-1,2
,,,,,,,,,,,,,,,,,,
10,1,1,10,5,5,5,Slide20.bmp,7036,2,5,0,7,8,23,15,13,-1,2
,,,,,,,,,,,,,,,,,,
11,1,1,66,41,1,1,Slide32.bmp,964,4,0,9,9,6,16,17,15,3,2
,,,,,,,,,,,,,,,,,,
11,1,1,63,38,1,1,Slide29.bmp,2088,4,9,0,9,6,16,17,15,3,2
,,,,,,,,,,,,,,,,,,
11,1,1,23,37,3,3,Slide22.bmp,3025,4,3,0,9,6,16,17,15,3,2
,,,,,,,,,,,,,,,,,,
11,1,1,53,33,2,2,Slide32.bmp,294,1,0,2,9,6,16,17,15,3,2
,,,,,,,,,,,,,,,,,,
11,1,1,24,30,5,5,Slide23.bmp,3917,1,5,0,9,6,16,17,15,3,2
,,,,,,,,,,,,,,,,,,
11,1,1,11,29,4,4,Slide21.bmp,5145,1,6,0,9,6,16,17,15,3,2
,,,,,,,,,,,,,,,,,,
11,1,1,40,25,2,2,Slide32.bmp,926,2,0,8,9,6,16,17,15,3,2
,,,,,,,,,,,,,,,,,,
11,1,1,50,22,3,3,Slide27.bmp,3074,2,7,0,9,6,16,17,15,3,2
,,,,,,,,,,,,,,,,,,
11,1,1,49,21,5,5,Slide26.bmp,2178,2,5,0,9,6,16,17,15,3,2
,,,,,,,,,,,,,,,,,,
12,1,1,40,25,6,6,Slide32.bmp,3392,1,0,4,6,7,18,19,11,-1,8
,,,,,,,,,,,,,,,,,,
12,1,1,10,22,3,3,Slide20.bmp,10483,1,3,0,6,7,18,19,11,-1,8
,,,,,,,,,,,,,,,,,,
12,1,1,37,21,5,5,Slide25.bmp,5470,1,5,0,6,7,18,19,11,-1,8
,,,,,,,,,,,,,,,,,,
12,1,1,27,17,4,4,Slide32.bmp,2701,2,0,4,6,7,18,19,11,-1,8
,,,,,,,,,,,,,,,,,,
12,1,1,23,14,3,3,Slide22.bmp,5801,2,3,0,6,7,18,19,11,-1,8
,,,,,,,,,,,,,,,,,,
12,1,1,62,13,6,6,Slide28.bmp,12344,2,6,0,6,7,18,19,11,-1,8
,,,,,,,,,,,,,,,,,,
13,1,1,66,41,5,5,Slide32.bmp,1006,2,0,5,8,6,19,8,23,2,-15
,,,,,,,,,,,,,,,,,,
13,1,1,63,38,4,4,Slide29.bmp,2456,2,6,0,8,6,19,8,23,2,-15
,,,,,,,,,,,,,,,,,,
13,1,1,23,37,5,5,Slide22.bmp,2062,2,5,0,8,6,19,8,23,2,-15
,,,,,,,,,,,,,,,,,,
13,1,1,53,33,5,5,Slide32.bmp,1195,4,0,5,8,6,19,8,23,2,-15
,,,,,,,,,,,,,,,,,,
13,1,1,49,30,7,7,Slide26.bmp,4017,4,7,0,8,6,19,8,23,2,-15
,,,,,,,,,,,,,,,,,,
13,1,1,10,29,3,3,Slide20.bmp,5100,4,3,0,8,6,19,8,23,2,-15
,,,,,,,,,,,,,,,,,,
13,1,1,27,17,7,7,Slide32.bmp,1029,1,0,7,8,6,19,8,23,2,-15
,,,,,,,,,,,,,,,,,,
13,1,1,50,14,2,2,Slide27.bmp,4837,1,8,0,8,6,19,8,23,2,-15
,,,,,,,,,,,,,,,,,,
13,1,1,11,13,5,5,Slide21.bmp,3219,1,5,0,8,6,19,8,23,2,-15
,,,,,,,,,,,,,,,,,,
15,1,1,66,41,3,3,Slide32.bmp,701,6,0,7,8,5,23,18,16,3,2
,,,,,,,,,,,,,,,,,,
15,1,1,23,38,4,4,Slide22.bmp,4595,6,4,0,8,5,23,18,16,3,2
,,,,,,,,,,,,,,,,,,
15,1,1,50,37,6,6,Slide27.bmp,3949,6,4,0,8,5,23,18,16,3,2
,,,,,,,,,,,,,,,,,,
15,1,1,53,33,8,8,Slide32.bmp,785,7,0,8,8,5,23,18,16,3,2
,,,,,,,,,,,,,,,,,,
15,1,1,62,30,6,6,Slide28.bmp,2550,7,6,0,8,5,23,18,16,3,2
,,,,,,,,,,,,,,,,,,
15,1,1,63,29,3,3,Slide29.bmp,3086,7,7,0,8,5,23,18,16,3,2
,,,,,,,,,,,,,,,,,,
15,1,1,40,25,5,5,Slide32.bmp,703,4,0,5,8,5,23,18,16,3,2
,,,,,,,,,,,,,,,,,,
15,1,1,24,22,6,6,Slide23.bmp,4410,4,4,0,8,5,23,18,16,3,2
,,,,,,,,,,,,,,,,,,
15,1,1,49,21,6,6,Slide26.bmp,3141,4,6,0,8,5,23,18,16,3,2
,,,,,,,,,,,,,,,,,,
15,1,1,27,17,6,6,Slide32.bmp,2245,2,0,6,8,5,23,18,16,3,2
,,,,,,,,,,,,,,,,,,
15,1,1,37,14,5,5,Slide25.bmp,4859,2,5,0,8,5,23,18,16,3,2
,,,,,,,,,,,,,,,,,,
15,1,1,10,13,3,3,Slide20.bmp,4350,2,3,0,8,5,23,18,16,3,2
,,,,,,,,,,,,,,,,,,
15,1,1,14,9,2,2,Slide32.bmp,2597,1,0,8,8,5,23,18,16,3,2
,,,,,,,,,,,,,,,,,,
15,1,1,36,6,8,8,Slide24.bmp,4690,1,8,0,8,5,23,18,16,3,2
,,,,,,,,,,,,,,,,,,
15,1,1,11,5,7,7,Slide21.bmp,8556,1,3,0,8,5,23,18,16,3,2
,,,,,,,,,,,,,,,,,,
16,1,1,66,41,6,6,Slide32.bmp,1561,1,0,4,7,9,17,17,16,-2,1
,,,,,,,,,,,,,,,,,,
16,1,1,36,38,7,7,Slide24.bmp,3471,1,7,0,7,9,17,17,16,-2,1
,,,,,,,,,,,,,,,,,,
16,1,1,62,37,7,7,Slide28.bmp,5381,1,7,0,7,9,17,17,16,-2,1
,,,,,,,,,,,,,,,,,,
16,1,1,53,33,7,7,Slide32.bmp,4042,2,0,7,7,9,17,17,16,-2,1
,,,,,,,,,,,,,,,,,,
16,1,1,10,30,3,3,Slide20.bmp,4290,2,3,0,7,9,17,17,16,-2,1
,,,,,,,,,,,,,,,,,,
16,1,1,37,29,4,4,Slide25.bmp,7460,2,6,0,7,9,17,17,16,-2,1
,,,,,,,,,,,,,,,,,,
16,1,1,27,17,4,4,Slide32.bmp,1913,4,0,4,7,9,17,17,16,-2,1
,,,,,,,,,,,,,,,,,,
16,1,1,50,14,8,8,Slide27.bmp,5129,4,2,0,7,9,17,17,16,-2,1
,,,,,,,,,,,,,,,,,,
16,1,1,49,13,6,6,Slide26.bmp,6977,4,6,0,7,9,17,17,16,-2,1
,,,,,,,,,,,,,,,,,,
17,1,1,66,41,1,1,Slide32.bmp,1276,2,0,9,5,6,17,12,17,-1,-5
,,,,,,,,,,,,,,,,,,
17,1,1,36,38,6,6,Slide24.bmp,3177,2,6,0,5,6,17,12,17,-1,-5
,,,,,,,,,,,,,,,,,,
17,1,1,49,37,8,8,Slide26.bmp,1930,2,8,0,5,6,17,12,17,-1,-5
,,,,,,,,,,,,,,,,,,
17,1,1,40,25,3,3,Slide32.bmp,3865,4,0,7,5,6,17,12,17,-1,-5
,,,,,,,,,,,,,,,,,,
17,1,1,11,22,4,4,Slide21.bmp,6894,4,6,0,5,6,17,12,17,-1,-5
,,,,,,,,,,,,,,,,,,
17,1,1,23,21,4,4,Slide22.bmp,5967,4,4,0,5,6,17,12,17,-1,-5
,,,,,,,,,,,,,,,,,,
17,1,1,27,17,8,8,Slide32.bmp,3743,6,0,8,5,6,17,12,17,-1,-5
,,,,,,,,,,,,,,,,,,
17,1,1,62,14,8,8,Slide28.bmp,5321,6,8,0,5,6,17,12,17,-1,-5
,,,,,,,,,,,,,,,,,,
17,1,1,63,13,3,3,Slide29.bmp,4964,6,7,0,5,6,17,12,17,-1,-5
,,,,,,,,,,,,,,,,,,
17,1,1,14,9,2,2,Slide32.bmp,4216,1,0,8,5,6,17,12,17,-1,-5
,,,,,,,,,,,,,,,,,,
17,1,1,50,6,4,4,Slide27.bmp,4832,1,6,0,5,6,17,12,17,-1,-5
,,,,,,,,,,,,,,,,,,
17,1,1,24,5,4,4,Slide23.bmp,10592,1,6,0,5,6,17,12,17,-1,-5
,,,,,,,,,,,,,,,,,,
18,1,1,66,41,3,3,Slide32.bmp,1225,1,0,7,4,9,18,13,11,-5,2
,,,,,,,,,,,,,,,,,,
18,1,1,23,38,5,5,Slide22.bmp,6370,1,5,0,4,9,18,13,11,-5,2
,,,,,,,,,,,,,,,,,,
18,1,1,36,37,6,6,Slide24.bmp,7195,1,6,0,4,9,18,13,11,-5,2
,,,,,,,,,,,,,,,,,,
18,1,1,40,25,4,4,Slide32.bmp,2717,6,0,6,4,9,18,13,11,-5,2
,,,,,,,,,,,,,,,,,,
18,1,1,50,22,3,3,Slide27.bmp,3799,6,7,0,4,9,18,13,11,-5,2
,,,,,,,,,,,,,,,,,,
18,1,1,37,21,1,1,Slide25.bmp,2749,6,9,0,4,9,18,13,11,-5,2
,,,,,,,,,,,,,,,,,,
18,1,1,27,17,7,7,Slide32.bmp,1104,4,0,7,4,9,18,13,11,-5,2
,,,,,,,,,,,,,,,,,,
18,1,1,62,14,9,9,Slide28.bmp,4730,4,9,0,4,9,18,13,11,-5,2
,,,,,,,,,,,,,,,,,,
18,1,1,10,13,2,2,Slide20.bmp,6044,4,2,0,4,9,18,13,11,-5,2
,,,,,,,,,,,,,,,,,,
18,1,1,14,9,2,2,Slide32.bmp,2991,2,0,8,4,9,18,13,11,-5,2
,,,,,,,,,,,,,,,,,,
18,1,1,63,6,2,2,Slide29.bmp,7058,2,8,0,4,9,18,13,11,-5,2
,,,,,,,,,,,,,,,,,,
18,1,1,49,5,8,8,Slide26.bmp,17001,2,8,0,4,9,18,13,11,-5,2
,,,,,,,,,,,,,,,,,,
19,1,1,40,25,3,3,Slide32.bmp,2303,4,0,7,8,7,18,12,21,1,-9
,,,,,,,,,,,,,,,,,,
19,1,1,63,22,8,8,Slide29.bmp,7063,4,2,0,8,7,18,12,21,1,-9
,,,,,,,,,,,,,,,,,,
19,1,1,49,21,8,8,Slide26.bmp,3253,4,8,0,8,7,18,12,21,1,-9
,,,,,,,,,,,,,,,,,,
19,1,1,27,17,4,4,Slide32.bmp,4489,2,0,4,8,7,18,12,21,1,-9
,,,,,,,,,,,,,,,,,,
19,1,1,62,14,8,8,Slide28.bmp,3421,2,8,0,8,7,18,12,21,1,-9
,,,,,,,,,,,,,,,,,,
19,1,1,36,13,8,8,Slide24.bmp,4801,2,8,0,8,7,18,12,21,1,-9
,,,,,,,,,,,,,,,,,,
19,1,1,14,9,6,6,Slide32.bmp,8438,1,0,4,8,7,18,12,21,1,-9
,,,,,,,,,,,,,,,,,,
19,1,1,10,6,7,7,Slide20.bmp,5297,1,7,0,8,7,18,12,21,1,-9
,,,,,,,,,,,,,,,,,,
19,1,1,24,5,7,7,Slide23.bmp,8384,1,3,0,8,7,18,12,21,1,-9
,,,,,,,,,,,,,,,,,,
20,1,1,53,33,5,5,Slide32.bmp,1270,1,0,5,9,7,13,18,15,2,3
,,,,,,,,,,,,,,,,,,
20,1,1,49,30,4,4,Slide26.bmp,2985,1,4,0,9,7,13,18,15,2,3
,,,,,,,,,,,,,,,,,,
20,1,1,62,29,5,5,Slide28.bmp,2271,1,5,0,9,7,13,18,15,2,3
,,,,,,,,,,,,,,,,,,
20,1,1,27,17,3,3,Slide32.bmp,2471,6,0,3,9,7,13,18,15,2,3
,,,,,,,,,,,,,,,,,,
20,1,1,10,14,2,2,Slide20.bmp,2589,6,2,0,9,7,13,18,15,2,3
,,,,,,,,,,,,,,,,,,
20,1,1,37,13,1,1,Slide25.bmp,4801,6,9,0,9,7,13,18,15,2,3
,,,,,,,,,,,,,,,,,,
20,1,1,14,9,8,8,Slide32.bmp,4227,2,0,2,9,7,13,18,15,2,3
,,,,,,,,,,,,,,,,,,
20,1,1,36,6,5,5,Slide24.bmp,5049,2,5,0,9,7,13,18,15,2,3
,,,,,,,,,,,,,,,,,,
20,1,1,11,5,3,3,Slide21.bmp,11357,2,7,0,9,7,13,18,15,2,3
,,,,,,,,,,,,,,,,,,
21,1,1,66,41,2,2,Slide32.bmp,1078,6,0,8,7,6,20,13,16,1,-3
,,,,,,,,,,,,,,,,,,
21,1,1,10,38,2,2,Slide20.bmp,3955,6,2,0,7,6,20,13,16,1,-3
,,,,,,,,,,,,,,,,,,
21,1,1,37,37,3,3,Slide25.bmp,8544,6,7,0,7,6,20,13,16,1,-3
,,,,,,,,,,,,,,,,,,
21,1,1,53,33,9,9,Slide32.bmp,1513,4,0,9,7,6,20,13,16,1,-3
,,,,,,,,,,,,,,,,,,
21,1,1,24,30,2,2,Slide23.bmp,1751,4,8,0,7,6,20,13,16,1,-3
,,,,,,,,,,,,,,,,,,
21,1,1,50,29,2,2,Slide27.bmp,3988,4,8,0,7,6,20,13,16,1,-3
,,,,,,,,,,,,,,,,,,
21,1,1,40,25,2,2,Slide32.bmp,1102,1,0,8,7,6,20,13,16,1,-3
,,,,,,,,,,,,,,,,,,
21,1,1,49,22,8,8,Slide26.bmp,2604,1,8,0,7,6,20,13,16,1,-3
,,,,,,,,,,,,,,,,,,
21,1,1,11,21,2,2,Slide21.bmp,2515,1,8,0,7,6,20,13,16,1,-3
,,,,,,,,,,,,,,,,,,
21,1,1,14,9,8,8,Slide32.bmp,4570,2,0,2,7,6,20,13,16,1,-3
,,,,,,,,,,,,,,,,,,
21,1,1,62,6,8,8,Slide28.bmp,5282,2,8,0,7,6,20,13,16,1,-3
,,,,,,,,,,,,,,,,,,
21,1,1,23,5,2,2,Slide22.bmp,9480,2,2,0,7,6,20,13,16,1,-3
,,,,,,,,,,,,,,,,,,
22,1,1,66,41,9,9,Slide32.bmp,919,2,0,1,11,6,23,12,19,5,-7
,,,,,,,,,,,,,,,,,,
22,1,1,49,38,9,9,Slide26.bmp,1873,2,9,0,11,6,23,12,19,5,-7
,,,,,,,,,,,,,,,,,,
22,1,1,11,37,5,5,Slide21.bmp,4285,2,5,0,11,6,23,12,19,5,-7
,,,,,,,,,,,,,,,,,,
22,1,1,53,33,5,5,Slide32.bmp,310,6,0,5,11,6,23,12,19,5,-7
,,,,,,,,,,,,,,,,,,
22,1,1,10,30,3,3,Slide20.bmp,2180,6,3,0,11,6,23,12,19,5,-7
,,,,,,,,,,,,,,,,,,
22,1,1,63,29,4,4,Slide29.bmp,3971,6,6,0,11,6,23,12,19,5,-7
,,,,,,,,,,,,,,,,,,
22,1,1,27,17,5,5,Slide32.bmp,785,4,0,5,11,6,23,12,19,5,-7
,,,,,,,,,,,,,,,,,,
22,1,1,62,14,7,7,Slide28.bmp,2840,4,7,0,11,6,23,12,19,5,-7
,,,,,,,,,,,,,,,,,,
22,1,1,24,13,1,1,Slide23.bmp,1689,4,9,0,11,6,23,12,19,5,-7
,,,,,,,,,,,,,,,,,,
22,1,1,14,9,1,1,Slide32.bmp,2443,1,0,9,11,6,23,12,19,5,-7
,,,,,,,,,,,,,,,,,,
22,1,1,23,6,1,1,Slide22.bmp,5828,1,1,0,11,6,23,12,19,5,-7
,,,,,,,,,,,,,,,,,,
22,1,1,36,5,5,5,Slide24.bmp,6941,1,5,0,11,6,23,12,19,5,-7
,,,,,,,,,,,,,,,,,,
23,1,1,66,41,4,4,Slide32.bmp,1518,1,0,6,7,5,18,20,8,2,12
,,,,,,,,,,,,,,,,,,
23,1,1,62,38,8,8,Slide28.bmp,4634,1,8,0,7,5,18,20,8,2,12
,,,,,,,,,,,,,,,,,,
23,1,1,50,37,8,8,Slide27.bmp,8286,1,2,0,7,5,18,20,8,2,12
,,,,,,,,,,,,,,,,,,
23,1,1,40,25,1,1,Slide32.bmp,533,2,0,9,7,5,18,20,8,2,12
,,,,,,,,,,,,,,,,,,
23,1,1,10,22,8,8,Slide20.bmp,2816,2,8,0,7,5,18,20,8,2,12
,,,,,,,,,,,,,,,,,,
23,1,1,11,21,8,8,Slide21.bmp,4228,2,2,0,7,5,18,20,8,2,12
,,,,,,,,,,,,,,,,,,
23,1,1,27,17,5,5,Slide32.bmp,619,4,0,5,7,5,18,20,8,2,12
,,,,,,,,,,,,,,,,,,
23,1,1,24,14,8,8,Slide23.bmp,3194,4,2,0,7,5,18,20,8,2,12
,,,,,,,,,,,,,,,,,,
23,1,1,63,13,8,8,Slide29.bmp,2718,4,2,0,7,5,18,20,8,2,12
,,,,,,,,,,,,,,,,,,
24,1,1,27,17,2,2,Slide32.bmp,3678,6,0,2,5,7,20,11,14,-2,-3
,,,,,,,,,,,,,,,,,,
24,1,1,23,14,3,3,Slide22.bmp,6127,6,3,0,5,7,20,11,14,-2,-3
,,,,,,,,,,,,,,,,,,
24,1,1,10,13,3,3,Slide20.bmp,5363,6,3,0,5,7,20,11,14,-2,-3
,,,,,,,,,,,,,,,,,,
24,1,1,14,9,4,4,Slide32.bmp,3912,1,0,6,5,7,20,11,14,-2,-3
,,,,,,,,,,,,,,,,,,
24,1,1,63,6,5,5,Slide29.bmp,10460,1,5,0,5,7,20,11,14,-2,-3
,,,,,,,,,,,,,,,,,,
24,1,1,49,5,3,3,Slide26.bmp,16378,1,3,0,5,7,20,11,14,-2,-3
,,,,,,,,,,,,,,,,,,
25,1,1,66,41,5,5,Slide32.bmp,2135,7,0,5,4,7,17,15,10,-3,5
,,,,,,,,,,,,,,,,,,
25,1,1,37,38,1,1,Slide25.bmp,4456,7,9,0,4,7,17,15,10,-3,5
,,,,,,,,,,,,,,,,,,
25,1,1,62,37,9,9,Slide28.bmp,3855,7,9,0,4,7,17,15,10,-3,5
,,,,,,,,,,,,,,,,,,
25,1,1,53,33,9,9,Slide32.bmp,2211,4,0,9,4,7,17,15,10,-3,5
,,,,,,,,,,,,,,,,,,
25,1,1,36,30,7,7,Slide24.bmp,3602,4,7,0,4,7,17,15,10,-3,5
,,,,,,,,,,,,,,,,,,
25,1,1,49,29,7,7,Slide26.bmp,7532,4,7,0,4,7,17,15,10,-3,5
,,,,,,,,,,,,,,,,,,
25,1,1,40,25,1,1,Slide32.bmp,617,2,0,9,4,7,17,15,10,-3,5
,,,,,,,,,,,,,,,,,,
25,1,1,10,22,2,2,Slide20.bmp,6814,2,2,0,4,7,17,15,10,-3,5
,,,,,,,,,,,,,,,,,,
25,1,1,24,21,2,2,Slide23.bmp,4636,2,8,0,4,7,17,15,10,-3,5
,,,,,,,,,,,,,,,,,,
25,1,1,27,17,9,9,Slide32.bmp,2049,1,0,9,4,7,17,15,10,-3,5
,,,,,,,,,,,,,,,,,,
25,1,1,23,14,6,6,Slide22.bmp,9469,1,6,0,4,7,17,15,10,-3,5
,,,,,,,,,,,,,,,,,,
25,1,1,11,13,5,5,Slide21.bmp,7683,1,5,0,4,7,17,15,10,-3,5
,,,,,,,,,,,,,,,,,,
25,1,1,14,9,8,8,Slide32.bmp,3094,6,0,2,4,7,17,15,10,-3,5
,,,,,,,,,,,,,,,,,,
25,1,1,50,6,5,5,Slide27.bmp,11454,6,5,0,4,7,17,15,10,-3,5
,,,,,,,,,,,,,,,,,,
25,1,1,63,5,3,3,Slide29.bmp,9065,6,7,0,4,7,17,15,10,-3,5
,,,,,,,,,,,,,,,,,,
26,1,1,66,41,1,1,Slide32.bmp,670,2,0,9,3,6,15,13,18,-3,-5
,,,,,,,,,,,,,,,,,,
26,1,1,24,38,2,2,Slide23.bmp,2012,2,8,0,3,6,15,13,18,-3,-5
,,,,,,,,,,,,,,,,,,
26,1,1,23,37,6,6,Slide22.bmp,3975,2,6,0,3,6,15,13,18,-3,-5
,,,,,,,,,,,,,,,,,,
26,1,1,40,25,1,1,Slide32.bmp,672,4,0,9,3,6,15,13,18,-3,-5
,,,,,,,,,,,,,,,,,,
26,1,1,62,22,9,9,Slide28.bmp,2948,4,9,0,3,6,15,13,18,-3,-5
,,,,,,,,,,,,,,,,,,
26,1,1,10,21,1,1,Slide20.bmp,4419,4,1,0,3,6,15,13,18,-3,-5
,,,,,,,,,,,,,,,,,,
26,1,1,27,17,1,1,Slide32.bmp,877,6,0,1,3,6,15,13,18,-3,-5
,,,,,,,,,,,,,,,,,,
26,1,1,49,14,8,8,Slide26.bmp,6461,6,8,0,3,6,15,13,18,-3,-5
,,,,,,,,,,,,,,,,,,
26,1,1,50,13,2,2,Slide27.bmp,3543,6,8,0,3,6,15,13,18,-3,-5
,,,,,,,,,,,,,,,,,,
26,1,1,14,9,4,4,Slide32.bmp,6135,1,0,6,3,6,15,13,18,-3,-5
,,,,,,,,,,,,,,,,,,
26,1,1,63,6,2,2,Slide29.bmp,5110,1,8,0,3,6,15,13,18,-3,-5
,,,,,,,,,,,,,,,,,,
26,1,1,37,5,1,1,Slide25.bmp,7145,1,9,0,3,6,15,13,18,-3,-5
,,,,,,,,,,,,,,,,,,
27,1,1,66,41,1,1,Slide32.bmp,1005,1,0,9,5,7,25,19,11,-2,8
,,,,,,,,,,,,,,,,,,
27,1,1,10,38,5,5,Slide20.bmp,3832,1,5,0,5,7,25,19,11,-2,8
,,,,,,,,,,,,,,,,,,
27,1,1,24,37,2,2,Slide23.bmp,2646,1,8,0,5,7,25,19,11,-2,8
,,,,,,,,,,,,,,,,,,
27,1,1,53,33,9,9,Slide32.bmp,2946,2,0,9,5,7,25,19,11,-2,8
,,,,,,,,,,,,,,,,,,
27,1,1,36,30,7,7,Slide24.bmp,3225,2,7,0,5,7,25,19,11,-2,8
,,,,,,,,,,,,,,,,,,
27,1,1,49,29,8,8,Slide26.bmp,3304,2,8,0,5,7,25,19,11,-2,8
,,,,,,,,,,,,,,,,,,
27,1,1,40,25,1,1,Slide32.bmp,2010,7,0,9,5,7,25,19,11,-2,8
,,,,,,,,,,,,,,,,,,
27,1,1,23,22,5,5,Slide22.bmp,2512,7,5,0,5,7,25,19,11,-2,8
,,,,,,,,,,,,,,,,,,
27,1,1,37,21,3,3,Slide25.bmp,3776,7,7,0,5,7,25,19,11,-2,8
,,,,,,,,,,,,,,,,,,
27,1,1,27,17,2,2,Slide32.bmp,711,6,0,2,5,7,25,19,11,-2,8
,,,,,,,,,,,,,,,,,,
27,1,1,63,14,1,1,Slide29.bmp,2256,6,9,0,5,7,25,19,11,-2,8
,,,,,,,,,,,,,,,,,,
27,1,1,62,13,7,7,Slide28.bmp,2342,6,7,0,5,7,25,19,11,-2,8
,,,,,,,,,,,,,,,,,,
27,1,1,14,9,1,1,Slide32.bmp,2052,4,0,9,5,7,25,19,11,-2,8
,,,,,,,,,,,,,,,,,,
27,1,1,50,6,7,7,Slide27.bmp,4510,4,3,0,5,7,25,19,11,-2,8
,,,,,,,,,,,,,,,,,,
27,1,1,11,5,4,4,Slide21.bmp,11636,4,6,0,5,7,25,19,11,-2,8
,,,,,,,,,,,,,,,,,,
28,1,1,66,41,5,5,Slide32.bmp,1225,1,0,5,6,6,24,18,12,0,6
,,,,,,,,,,,,,,,,,,
28,1,1,37,38,9,9,Slide25.bmp,4886,1,1,0,6,6,24,18,12,0,6
,,,,,,,,,,,,,,,,,,
28,1,1,36,37,5,5,Slide24.bmp,13048,1,5,0,6,6,24,18,12,0,6
,,,,,,,,,,,,,,,,,,
28,1,1,53,33,6,6,Slide32.bmp,3576,2,0,6,6,6,24,18,12,0,6
,,,,,,,,,,,,,,,,,,
28,1,1,50,30,6,6,Slide27.bmp,5199,2,4,0,6,6,24,18,12,0,6
,,,,,,,,,,,,,,,,,,
28,1,1,23,29,1,1,Slide22.bmp,2424,2,1,0,6,6,24,18,12,0,6
,,,,,,,,,,,,,,,,,,
28,1,1,40,25,1,1,Slide32.bmp,2275,4,0,9,6,6,24,18,12,0,6
,,,,,,,,,,,,,,,,,,
28,1,1,24,22,4,4,Slide23.bmp,15029,4,6,0,6,6,24,18,12,0,6
,,,,,,,,,,,,,,,,,,
28,1,1,62,21,6,6,Slide28.bmp,13062,4,6,0,6,6,24,18,12,0,6
,,,,,,,,,,,,,,,,,,
29,1,1,66,41,1,1,Slide32.bmp,668,1,0,9,7,7,19,19,7,0,12
,,,,,,,,,,,,,,,,,,
29,1,1,37,38,1,1,Slide25.bmp,1933,1,9,0,7,7,19,19,7,0,12
,,,,,,,,,,,,,,,,,,
29,1,1,50,37,1,1,Slide27.bmp,3184,1,9,0,7,7,19,19,7,0,12
,,,,,,,,,,,,,,,,,,
29,1,1,53,33,9,9,Slide32.bmp,1259,2,0,9,7,7,19,19,7,0,12
,,,,,,,,,,,,,,,,,,
29,1,1,49,30,3,3,Slide26.bmp,3871,2,3,0,7,7,19,19,7,0,12
,,,,,,,,,,,,,,,,,,
29,1,1,10,29,4,4,Slide20.bmp,8628,2,4,0,7,7,19,19,7,0,12
,,,,,,,,,,,,,,,,,,
29,1,1,27,17,8,8,Slide32.bmp,2524,6,0,8,7,7,19,19,7,0,12
,,,,,,,,,,,,,,,,,,
29,1,1,36,14,7,7,Slide24.bmp,2976,6,7,0,7,7,19,19,7,0,12
,,,,,,,,,,,,,,,,,,
29,1,1,62,13,7,7,Slide28.bmp,3478,6,7,0,7,7,19,19,7,0,12
,,,,,,,,,,,,,,,,,,
30,1,1,66,41,1,1,Slide32.bmp,641,2,0,9,7,5,21,18,6,2,12
,,,,,,,,,,,,,,,,,,
30,1,1,10,38,1,1,Slide20.bmp,4743,2,1,0,7,5,21,18,6,2,12
,,,,,,,,,,,,,,,,,,
30,1,1,62,37,9,9,Slide28.bmp,6723,2,9,0,7,5,21,18,6,2,12
,,,,,,,,,,,,,,,,,,
30,1,1,53,33,2,2,Slide32.bmp,1777,4,0,2,7,5,21,18,6,2,12
,,,,,,,,,,,,,,,,,,
30,1,1,49,30,7,7,Slide26.bmp,3206,4,7,0,7,5,21,18,6,2,12
,,,,,,,,,,,,,,,,,,
30,1,1,37,29,2,2,Slide25.bmp,6032,4,8,0,7,5,21,18,6,2,12
,,,,,,,,,,,,,,,,,,
30,1,1,40,25,1,1,Slide32.bmp,273,7,0,9,7,5,21,18,6,2,12
,,,,,,,,,,,,,,,,,,
30,1,1,24,22,1,1,Slide23.bmp,1956,7,9,0,7,5,21,18,6,2,12
,,,,,,,,,,,,,,,,,,
30,1,1,23,21,5,5,Slide22.bmp,1865,7,5,0,7,5,21,18,6,2,12
,,,,,,,,,,,,,,,,,,
30,1,1,27,17,8,8,Slide32.bmp,1644,1,0,8,7,5,21,18,6,2,12
,,,,,,,,,,,,,,,,,,
30,1,1,11,14,5,5,Slide21.bmp,7665,1,5,0,7,5,21,18,6,2,12
,,,,,,,,,,,,,,,,,,
30,1,1,63,13,2,2,Slide29.bmp,4260,1,8,0,7,5,21,18,6,2,12
,,,,,,,,,,,,,,,,,,
30,1,1,14,9,3,3,Slide32.bmp,2694,6,0,7,7,5,21,18,6,2,12
,,,,,,,,,,,,,,,,,,
30,1,1,36,6,6,6,Slide24.bmp,4677,6,6,0,7,5,21,18,6,2,12
,,,,,,,,,,,,,,,,,,
30,1,1,50,5,9,9,Slide27.bmp,6467,6,1,0,7,5,21,18,6,2,12
,,,,,,,,,,,,,,,,,,
31,1,1,66,41,1,1,Slide32.bmp,610,2,0,9,7,10,25,19,12,-3,7
,,,,,,,,,,,,,,,,,,
31,1,1,36,38,9,9,Slide24.bmp,1230,2,9,0,7,10,25,19,12,-3,7
,,,,,,,,,,,,,,,,,,
31,1,1,11,37,9,9,Slide21.bmp,1929,2,1,0,7,10,25,19,12,-3,7
,,,,,,,,,,,,,,,,,,
31,1,1,53,33,1,1,Slide32.bmp,697,6,0,1,7,10,25,19,12,-3,7
,,,,,,,,,,,,,,,,,,
31,1,1,49,30,9,9,Slide26.bmp,1475,6,9,0,7,10,25,19,12,-3,7
,,,,,,,,,,,,,,,,,,
31,1,1,23,29,9,9,Slide22.bmp,1675,6,9,0,7,10,25,19,12,-3,7
,,,,,,,,,,,,,,,,,,
31,1,1,40,25,9,9,Slide32.bmp,1104,1,0,1,7,10,25,19,12,-3,7
,,,,,,,,,,,,,,,,,,
31,1,1,10,22,1,1,Slide20.bmp,1683,1,1,0,7,10,25,19,12,-3,7
,,,,,,,,,,,,,,,,,,
31,1,1,62,21,9,9,Slide28.bmp,2104,1,9,0,7,10,25,19,12,-3,7
,,,,,,,,,,,,,,,,,,
31,1,1,14,9,1,1,Slide32.bmp,1496,4,0,9,7,10,25,19,12,-3,7
,,,,,,,,,,,,,,,,,,
31,1,1,63,6,1,1,Slide29.bmp,2149,4,9,0,7,10,25,19,12,-3,7
,,,,,,,,,,,,,,,,,,
31,1,1,37,5,1,1,Slide25.bmp,7659,4,9,0,7,10,25,19,12,-3,7
,,,,,,,,,,,,,,,,,,
32,1,1,66,41,2,2,Slide32.bmp,2180,7,0,8,10,7,24,16,7,3,9
,,,,,,,,,,,,,,,,,,
32,1,1,23,38,4,4,Slide22.bmp,4244,7,4,0,10,7,24,16,7,3,9
,,,,,,,,,,,,,,,,,,
32,1,1,37,37,7,7,Slide25.bmp,13799,7,3,0,10,7,24,16,7,3,9
,,,,,,,,,,,,,,,,,,
32,1,1,53,33,1,1,Slide32.bmp,1220,1,0,1,10,7,24,16,7,3,9
,,,,,,,,,,,,,,,,,,
32,1,1,11,30,5,5,Slide21.bmp,10496,1,5,0,10,7,24,16,7,3,9
,,,,,,,,,,,,,,,,,,
32,1,1,63,29,1,1,Slide29.bmp,4139,1,9,0,10,7,24,16,7,3,9
,,,,,,,,,,,,,,,,,,
32,1,1,40,25,1,1,Slide32.bmp,1852,2,0,9,10,7,24,16,7,3,9
,,,,,,,,,,,,,,,,,,
32,1,1,62,22,4,4,Slide28.bmp,9007,2,4,0,10,7,24,16,7,3,9
,,,,,,,,,,,,,,,,,,
32,1,1,49,21,6,6,Slide26.bmp,7714,2,6,0,10,7,24,16,7,3,9
,,,,,,,,,,,,,,,,,,
33,1,1,66,41,2,2,Slide32.bmp,1126,4,0,8,6,6,19,20,6,0,14
,,,,,,,,,,,,,,,,,,
33,1,1,50,38,8,8,Slide27.bmp,4593,4,2,0,6,6,19,20,6,0,14
,,,,,,,,,,,,,,,,,,
33,1,1,24,37,2,2,Slide23.bmp,5250,4,8,0,6,6,19,20,6,0,14
,,,,,,,,,,,,,,,,,,
33,1,1,53,33,9,9,Slide32.bmp,3386,2,0,9,6,6,19,20,6,0,14
,,,,,,,,,,,,,,,,,,
33,1,1,62,30,8,8,Slide28.bmp,5819,2,8,0,6,6,19,20,6,0,14
,,,,,,,,,,,,,,,,,,
33,1,1,36,29,8,8,Slide24.bmp,5668,2,8,0,6,6,19,20,6,0,14
,,,,,,,,,,,,,,,,,,
33,1,1,40,25,2,2,Slide32.bmp,818,6,0,8,6,6,19,20,6,0,14
,,,,,,,,,,,,,,,,,,
33,1,1,49,22,8,8,Slide26.bmp,3225,6,8,0,6,6,19,20,6,0,14
,,,,,,,,,,,,,,,,,,
33,1,1,11,21,2,2,Slide21.bmp,3488,6,8,0,6,6,19,20,6,0,14
,,,,,,,,,,,,,,,,,,
33,1,1,27,17,8,8,Slide32.bmp,5822,1,0,8,6,6,19,20,6,0,14
,,,,,,,,,,,,,,,,,,
33,1,1,23,14,5,5,Slide22.bmp,12971,1,5,0,6,6,19,20,6,0,14
,,,,,,,,,,,,,,,,,,
33,1,1,37,13,2,2,Slide25.bmp,9174,1,8,0,6,6,19,20,6,0,14
,,,,,,,,,,,,,,,,,,
34,1,1,66,41,1,1,Slide32.bmp,1826,4,0,9,3,9,20,21,8,-6,13
,,,,,,,,,,,,,,,,,,
34,1,1,11,38,1,1,Slide21.bmp,9667,4,9,0,3,9,20,21,8,-6,13
,,,,,,,,,,,,,,,,,,
34,1,1,24,37,1,1,Slide23.bmp,2854,4,9,0,3,9,20,21,8,-6,13
,,,,,,,,,,,,,,,,,,
34,1,1,53,33,7,7,Slide32.bmp,3140,1,0,7,3,9,20,21,8,-6,13
,,,,,,,,,,,,,,,,,,
34,1,1,23,30,3,3,Slide22.bmp,7147,1,3,0,3,9,20,21,8,-6,13
,,,,,,,,,,,,,,,,,,
34,1,1,37,29,4,4,Slide25.bmp,6130,1,6,0,3,9,20,21,8,-6,13
,,,,,,,,,,,,,,,,,,
34,1,1,40,25,1,1,Slide32.bmp,1540,2,0,9,3,9,20,21,8,-6,13
,,,,,,,,,,,,,,,,,,
34,1,1,10,22,7,7,Slide20.bmp,4866,2,7,0,3,9,20,21,8,-6,13
,,,,,,,,,,,,,,,,,,
34,1,1,62,21,9,9,Slide28.bmp,3367,2,9,0,3,9,20,21,8,-6,13
,,,,,,,,,,,,,,,,,,
34,1,1,27,17,9,9,Slide32.bmp,3047,6,0,9,3,9,20,21,8,-6,13
,,,,,,,,,,,,,,,,,,
34,1,1,50,14,2,2,Slide27.bmp,6259,6,8,0,3,9,20,21,8,-6,13
,,,,,,,,,,,,,,,,,,
34,1,1,63,13,1,1,Slide29.bmp,2767,6,9,0,3,9,20,21,8,-6,13
,,,,,,,,,,,,,,,,,,
34,1,1,14,9,2,2,Slide32.bmp,6241,7,0,8,3,9,20,21,8,-6,13
,,,,,,,,,,,,,,,,,,
34,1,1,36,6,9,9,Slide24.bmp,5937,7,9,0,3,9,20,21,8,-6,13
,,,,,,,,,,,,,,,,,,
34,1,1,49,5,6,6,Slide26.bmp,13725,7,6,0,3,9,20,21,8,-6,13
,,,,,,,,,,,,,,,,,,
35,1,1,53,33,6,6,Slide32.bmp,778,4,0,6,6,5,15,19,17,1,2
,,,,,,,,,,,,,,,,,,
35,1,1,24,30,3,3,Slide23.bmp,1879,4,7,0,6,5,15,19,17,1,2
,,,,,,,,,,,,,,,,,,
35,1,1,63,29,2,2,Slide29.bmp,4398,4,8,0,6,5,15,19,17,1,2
,,,,,,,,,,,,,,,,,,
35,1,1,40,25,5,5,Slide32.bmp,372,1,0,5,6,5,15,19,17,1,2
,,,,,,,,,,,,,,,,,,
35,1,1,11,22,5,5,Slide21.bmp,2777,1,5,0,6,5,15,19,17,1,2
,,,,,,,,,,,,,,,,,,
35,1,1,23,21,4,4,Slide22.bmp,3150,1,4,0,6,5,15,19,17,1,2
,,,,,,,,,,,,,,,,,,
35,1,1,27,17,7,7,Slide32.bmp,1762,2,0,7,6,5,15,19,17,1,2
,,,,,,,,,,,,,,,,,,
35,1,1,49,14,8,8,Slide26.bmp,3516,2,8,0,6,5,15,19,17,1,2
,,,,,,,,,,,,,,,,,,
35,1,1,10,13,3,3,Slide20.bmp,6942,2,3,0,6,5,15,19,17,1,2
,,,,,,,,,,,,,,,,,,
36,1,1,66,41,3,3,Slide32.bmp,275,2,0,7,11,4,20,15,18,7,-3
,,,,,,,,,,,,,,,,,,
36,1,1,11,38,5,5,Slide21.bmp,4451,2,5,0,11,4,20,15,18,7,-3
,,,,,,,,,,,,,,,,,,
36,1,1,36,37,6,6,Slide24.bmp,2486,2,6,0,11,4,20,15,18,7,-3
,,,,,,,,,,,,,,,,,,
36,1,1,40,25,4,4,Slide32.bmp,365,7,0,6,11,4,20,15,18,7,-3
,,,,,,,,,,,,,,,,,,
36,1,1,37,22,5,5,Slide25.bmp,1378,7,5,0,11,4,20,15,18,7,-3
,,,,,,,,,,,,,,,,,,
36,1,1,23,21,5,5,Slide22.bmp,5890,7,5,0,11,4,20,15,18,7,-3
,,,,,,,,,,,,,,,,,,
36,1,1,27,17,4,4,Slide32.bmp,594,4,0,4,11,4,20,15,18,7,-3
,,,,,,,,,,,,,,,,,,
36,1,1,49,14,5,5,Slide26.bmp,3693,4,5,0,11,4,20,15,18,7,-3
,,,,,,,,,,,,,,,,,,
36,1,1,62,13,6,6,Slide28.bmp,2836,4,6,0,11,4,20,15,18,7,-3
,,,,,,,,,,,,,,,,,,
36,1,1,14,9,5,5,Slide32.bmp,4713,1,0,5,11,4,20,15,18,7,-3
,,,,,,,,,,,,,,,,,,
36,1,1,63,6,3,3,Slide29.bmp,5139,1,7,0,11,4,20,15,18,7,-3
,,,,,,,,,,,,,,,,,,
36,1,1,50,5,7,7,Slide27.bmp,7172,1,3,0,11,4,20,15,18,7,-3
,,,,,,,,,,,,,,,,,,
37,1,1,53,33,3,3,Slide32.bmp,1587,1,0,3,9,9,23,16,20,0,-4
,,,,,,,,,,,,,,,,,,
37,1,1,11,30,9,9,Slide21.bmp,2137,1,1,0,9,9,23,16,20,0,-4
,,,,,,,,,,,,,,,,,,
37,1,1,36,29,9,9,Slide24.bmp,2734,1,9,0,9,9,23,16,20,0,-4
,,,,,,,,,,,,,,,,,,
37,1,1,40,25,3,3,Slide32.bmp,2039,2,0,7,9,9,23,16,20,0,-4
,,,,,,,,,,,,,,,,,,
37,1,1,50,22,9,9,Slide27.bmp,7837,2,1,0,9,9,23,16,20,0,-4
,,,,,,,,,,,,,,,,,,
37,1,1,10,21,2,2,Slide20.bmp,3539,2,2,0,9,9,23,16,20,0,-4
,,,,,,,,,,,,,,,,,,
37,1,1,14,9,9,9,Slide32.bmp,2502,6,0,1,9,9,23,16,20,0,-4
,,,,,,,,,,,,,,,,,,
37,1,1,37,6,9,9,Slide25.bmp,4169,6,1,0,9,9,23,16,20,0,-4
,,,,,,,,,,,,,,,,,,
37,1,1,63,5,9,9,Slide29.bmp,5823,6,1,0,9,9,23,16,20,0,-4
,,,,,,,,,,,,,,,,,,
38,1,1,66,41,1,1,Slide32.bmp,317,2,0,9,10,7,18,15,15,3,0
,,,,,,,,,,,,,,,,,,
38,1,1,36,38,9,9,Slide24.bmp,2163,2,9,0,10,7,18,15,15,3,0
,,,,,,,,,,,,,,,,,,
38,1,1,50,37,1,1,Slide27.bmp,2019,2,9,0,10,7,18,15,15,3,0
,,,,,,,,,,,,,,,,,,
38,1,1,53,33,1,1,Slide32.bmp,533,4,0,1,10,7,18,15,15,3,0
,,,,,,,,,,,,,,,,,,
38,1,1,62,30,8,8,Slide28.bmp,1703,4,8,0,10,7,18,15,15,3,0
,,,,,,,,,,,,,,,,,,
38,1,1,23,29,5,5,Slide22.bmp,6091,4,5,0,10,7,18,15,15,3,0
,,,,,,,,,,,,,,,,,,
38,1,1,40,25,1,1,Slide32.bmp,1388,1,0,9,10,7,18,15,15,3,0
,,,,,,,,,,,,,,,,,,
38,1,1,37,22,2,2,Slide25.bmp,3545,1,8,0,10,7,18,15,15,3,0
,,,,,,,,,,,,,,,,,,
38,1,1,11,21,4,4,Slide21.bmp,5244,1,6,0,10,7,18,15,15,3,0
,,,,,,,,,,,,,,,,,,
38,1,1,14,9,1,1,Slide32.bmp,2927,6,0,9,10,7,18,15,15,3,0
,,,,,,,,,,,,,,,,,,
38,1,1,49,6,8,8,Slide26.bmp,8275,6,8,0,10,7,18,15,15,3,0
,,,,,,,,,,,,,,,,,,
38,1,1,24,5,5,5,Slide23.bmp,43294,6,5,0,10,7,18,15,15,3,0
,,,,,,,,,,,,,,,,,,
39,1,1,53,33,8,8,Slide32.bmp,318,6,0,8,8,10,16,15,14,-2,1
,,,,,,,,,,,,,,,,,,
39,1,1,36,30,8,8,Slide24.bmp,6346,6,8,0,8,10,16,15,14,-2,1
,,,,,,,,,,,,,,,,,,
39,1,1,62,29,8,8,Slide28.bmp,1913,6,8,0,8,10,16,15,14,-2,1
,,,,,,,,,,,,,,,,,,
39,1,1,40,25,3,3,Slide32.bmp,1606,4,0,7,8,10,16,15,14,-2,1
,,,,,,,,,,,,,,,,,,
39,1,1,11,22,2,2,Slide21.bmp,2257,4,8,0,8,10,16,15,14,-2,1
,,,,,,,,,,,,,,,,,,
39,1,1,10,21,4,4,Slide20.bmp,2060,4,4,0,8,10,16,15,14,-2,1
,,,,,,,,,,,,,,,,,,
39,1,1,27,17,8,8,Slide32.bmp,1858,1,0,8,8,10,16,15,14,-2,1
,,,,,,,,,,,,,,,,,,
39,1,1,37,14,3,3,Slide25.bmp,2119,1,7,0,8,10,16,15,14,-2,1
,,,,,,,,,,,,,,,,,,
39,1,1,23,13,5,5,Slide22.bmp,4462,1,5,0,8,10,16,15,14,-2,1
,,,,,,,,,,,,,,,,,,
39,1,1,14,9,7,7,Slide32.bmp,3823,2,0,3,8,10,16,15,14,-2,1
,,,,,,,,,,,,,,,,,,
39,1,1,24,6,3,3,Slide23.bmp,4506,2,7,0,8,10,16,15,14,-2,1
,,,,,,,,,,,,,,,,,,
39,1,1,49,5,5,5,Slide26.bmp,6963,2,5,0,8,10,16,15,14,-2,1
,,,,,,,,,,,,,,,,,,
40,1,1,53,33,5,5,Slide32.bmp,511,2,0,5,6,8,23,18,8,-2,10
,,,,,,,,,,,,,,,,,,
40,1,1,63,30,8,8,Slide29.bmp,3246,2,2,0,6,8,23,18,8,-2,10
,,,,,,,,,,,,,,,,,,
40,1,1,11,29,3,3,Slide21.bmp,5812,2,7,0,6,8,23,18,8,-2,10
,,,,,,,,,,,,,,,,,,
40,1,1,27,17,1,1,Slide32.bmp,492,1,0,1,6,8,23,18,8,-2,10
,,,,,,,,,,,,,,,,,,
40,1,1,24,14,4,4,Slide23.bmp,3553,1,6,0,6,8,23,18,8,-2,10
,,,,,,,,,,,,,,,,,,
40,1,1,37,13,5,5,Slide25.bmp,5093,1,5,0,6,8,23,18,8,-2,10
,,,,,,,,,,,,,,,,,,
41,1,1,66,41,1,1,Slide32.bmp,1565,2,0,9,14,3,14,16,20,11,-4
,,,,,,,,,,,,,,,,,,
41,1,1,37,38,2,2,Slide25.bmp,11166,2,8,0,14,3,14,16,20,11,-4
,,,,,,,,,,,,,,,,,,
41,1,1,50,37,8,8,Slide27.bmp,13936,2,2,0,14,3,14,16,20,11,-4
,,,,,,,,,,,,,,,,,,
41,1,1,40,25,5,5,Slide32.bmp,1121,4,0,5,14,3,14,16,20,11,-4
,,,,,,,,,,,,,,,,,,
41,1,1,11,22,8,8,Slide21.bmp,5628,4,2,0,14,3,14,16,20,11,-4
,,,,,,,,,,,,,,,,,,
41,1,1,36,21,9,9,Slide24.bmp,3759,4,9,0,14,3,14,16,20,11,-4
,,,,,,,,,,,,,,,,,,
41,1,1,27,17,9,9,Slide32.bmp,3033,1,0,9,14,3,14,16,20,11,-4
,,,,,,,,,,,,,,,,,,
41,1,1,62,14,9,9,Slide28.bmp,5570,1,9,0,14,3,14,16,20,11,-4
,,,,,,,,,,,,,,,,,,
41,1,1,23,13,3,3,Slide22.bmp,6839,1,3,0,14,3,14,16,20,11,-4
,,,,,,,,,,,,,,,,,,
41,1,1,14,9,4,4,Slide32.bmp,5342,6,0,6,14,3,14,16,20,11,-4
,,,,,,,,,,,,,,,,,,
41,1,1,49,6,9,9,Slide26.bmp,5883,6,9,0,14,3,14,16,20,11,-4
,,,,,,,,,,,,,,,,,,
41,1,1,10,5,2,2,Slide20.bmp,14618,6,2,0,14,3,14,16,20,11,-4
,,,,,,,,,,,,,,,,,,
42,1,1,66,41,1,1,Slide32.bmp,984,4,0,9,5,7,23,19,5,-2,14
,,,,,,,,,,,,,,,,,,
42,1,1,11,38,5,5,Slide21.bmp,3093,4,5,0,5,7,23,19,5,-2,14
,,,,,,,,,,,,,,,,,,
42,1,1,36,37,9,9,Slide24.bmp,3094,4,9,0,5,7,23,19,5,-2,14
,,,,,,,,,,,,,,,,,,
42,1,1,27,17,9,9,Slide32.bmp,3525,2,0,9,5,7,23,19,5,-2,14
,,,,,,,,,,,,,,,,,,
42,1,1,23,14,5,5,Slide22.bmp,7069,2,5,0,5,7,23,19,5,-2,14
,,,,,,,,,,,,,,,,,,
42,1,1,24,13,5,5,Slide23.bmp,4433,2,5,0,5,7,23,19,5,-2,14
,,,,,,,,,,,,,,,,,,
42,1,1,14,9,3,3,Slide32.bmp,3695,1,0,7,5,7,23,19,5,-2,14
,,,,,,,,,,,,,,,,,,
42,1,1,37,6,1,1,Slide25.bmp,6462,1,9,0,5,7,23,19,5,-2,14
,,,,,,,,,,,,,,,,,,
42,1,1,63,5,1,1,Slide29.bmp,7179,1,9,0,5,7,23,19,5,-2,14
,,,,,,,,,,,,,,,,,,
43,1,1,53,33,9,9,Slide32.bmp,1713,4,0,9,8,8,11,10,19,0,-9
,,,,,,,,,,,,,,,,,,
43,1,1,37,30,1,1,Slide25.bmp,2915,4,9,0,8,8,11,10,19,0,-9
,,,,,,,,,,,,,,,,,,
43,1,1,24,29,2,2,Slide23.bmp,5814,4,8,0,8,8,11,10,19,0,-9
,,,,,,,,,,,,,,,,,,
43,1,1,14,9,3,3,Slide32.bmp,4912,1,0,7,8,8,11,10,19,0,-9
,,,,,,,,,,,,,,,,,,
43,1,1,50,6,2,2,Slide27.bmp,12127,1,8,0,8,8,11,10,19,0,-9
,,,,,,,,,,,,,,,,,,
43,1,1,62,5,9,9,Slide28.bmp,12050,1,9,0,8,8,11,10,19,0,-9
,,,,,,,,,,,,,,,,,,
44,1,1,53,33,9,9,Slide32.bmp,2705,2,0,9,5,9,20,19,12,-4,7
,,,,,,,,,,,,,,,,,,
44,1,1,24,30,1,1,Slide23.bmp,3343,2,9,0,5,9,20,19,12,-4,7
,,,,,,,,,,,,,,,,,,
44,1,1,10,29,9,9,Slide20.bmp,3583,2,9,0,5,9,20,19,12,-4,7
,,,,,,,,,,,,,,,,,,
44,1,1,40,25,1,1,Slide32.bmp,805,4,0,9,5,9,20,19,12,-4,7
,,,,,,,,,,,,,,,,,,
44,1,1,50,22,9,9,Slide27.bmp,14455,4,1,0,5,9,20,19,12,-4,7
,,,,,,,,,,,,,,,,,,
44,1,1,36,21,9,9,Slide24.bmp,4054,4,9,0,5,9,20,19,12,-4,7
,,,,,,,,,,,,,,,,,,
44,1,1,27,17,9,9,Slide32.bmp,1192,1,0,9,5,9,20,19,12,-4,7
,,,,,,,,,,,,,,,,,,
44,1,1,11,14,4,4,Slide21.bmp,15471,1,6,0,5,9,20,19,12,-4,7
,,,,,,,,,,,,,,,,,,
44,1,1,62,13,9,9,Slide28.bmp,6584,1,9,0,5,9,20,19,12,-4,7
,,,,,,,,,,,,,,,,,,
45,1,1,66,41,5,5,Slide32.bmp,1705,6,0,5,8,2,16,13,13,6,0
,,,,,,,,,,,,,,,,,,
45,1,1,10,38,1,1,Slide20.bmp,2982,6,1,0,8,2,16,13,13,6,0
,,,,,,,,,,,,,,,,,,
45,1,1,24,37,1,1,Slide23.bmp,4583,6,9,0,8,2,16,13,13,6,0
,,,,,,,,,,,,,,,,,,
45,1,1,40,25,5,5,Slide32.bmp,2362,2,0,5,8,2,16,13,13,6,0
,,,,,,,,,,,,,,,,,,
45,1,1,49,22,9,9,Slide26.bmp,4207,2,9,0,8,2,16,13,13,6,0
,,,,,,,,,,,,,,,,,,
45,1,1,37,21,1,1,Slide25.bmp,4212,2,9,0,8,2,16,13,13,6,0
,,,,,,,,,,,,,,,,,,
45,1,1,27,17,9,9,Slide32.bmp,1813,1,0,9,8,2,16,13,13,6,0
,,,,,,,,,,,,,,,,,,
45,1,1,63,14,1,1,Slide29.bmp,3856,1,9,0,8,2,16,13,13,6,0
,,,,,,,,,,,,,,,,,,
45,1,1,36,13,9,9,Slide24.bmp,4516,1,9,0,8,2,16,13,13,6,0
,,,,,,,,,,,,,,,,,,
45,1,1,14,9,9,9,Slide32.bmp,6355,4,0,1,8,2,16,13,13,6,0
,,,,,,,,,,,,,,,,,,
45,1,1,11,6,1,1,Slide21.bmp,6080,4,9,0,8,2,16,13,13,6,0
,,,,,,,,,,,,,,,,,,
45,1,1,23,5,1,1,Slide22.bmp,13916,4,1,0,8,2,16,13,13,6,0
,,,,,,,,,,,,,,,,,,
46,1,1,66,41,3,3,Slide32.bmp,1596,2,0,7,8,5,18,13,19,3,-6
,,,,,,,,,,,,,,,,,,
46,1,1,49,38,4,4,Slide26.bmp,3875,2,4,0,8,5,18,13,19,3,-6
,,,,,,,,,,,,,,,,,,
46,1,1,37,37,4,4,Slide25.bmp,3662,2,6,0,8,5,18,13,19,3,-6
,,,,,,,,,,,,,,,,,,
46,1,1,53,33,5,5,Slide32.bmp,507,6,0,5,8,5,18,13,19,3,-6
,,,,,,,,,,,,,,,,,,
46,1,1,63,30,4,4,Slide29.bmp,4430,6,6,0,8,5,18,13,19,3,-6
,,,,,,,,,,,,,,,,,,
46,1,1,24,29,5,5,Slide23.bmp,2460,6,5,0,8,5,18,13,19,3,-6
,,,,,,,,,,,,,,,,,,
46,1,1,40,25,6,6,Slide32.bmp,1125,4,0,4,8,5,18,13,19,3,-6
,,,,,,,,,,,,,,,,,,
46,1,1,50,22,7,7,Slide27.bmp,5206,4,3,0,8,5,18,13,19,3,-6
,,,,,,,,,,,,,,,,,,
46,1,1,23,21,4,4,Slide22.bmp,4574,4,4,0,8,5,18,13,19,3,-6
,,,,,,,,,,,,,,,,,,
46,1,1,14,9,5,5,Slide32.bmp,2299,1,0,5,8,5,18,13,19,3,-6
,,,,,,,,,,,,,,,,,,
46,1,1,62,6,7,7,Slide28.bmp,10772,1,7,0,8,5,18,13,19,3,-6
,,,,,,,,,,,,,,,,,,
46,1,1,10,5,1,1,Slide20.bmp,8013,1,1,0,8,5,18,13,19,3,-6
,,,,,,,,,,,,,,,,,,
47,1,1,53,33,5,5,Slide32.bmp,1351,4,0,5,6,5,19,16,11,1,5
,,,,,,,,,,,,,,,,,,
47,1,1,50,30,4,4,Slide27.bmp,9044,4,6,0,6,5,19,16,11,1,5
,,,,,,,,,,,,,,,,,,
47,1,1,63,29,1,1,Slide29.bmp,5370,4,9,0,6,5,19,16,11,1,5
,,,,,,,,,,,,,,,,,,
47,1,1,40,25,7,7,Slide32.bmp,6745,1,0,3,6,5,19,16,11,1,5
,,,,,,,,,,,,,,,,,,
47,1,1,23,22,3,3,Slide22.bmp,9698,1,3,0,6,5,19,16,11,1,5
,,,,,,,,,,,,,,,,,,
47,1,1,36,21,8,8,Slide24.bmp,5642,1,8,0,6,5,19,16,11,1,5
,,,,,,,,,,,,,,,,,,
47,1,1,27,17,9,9,Slide32.bmp,2978,6,0,9,6,5,19,16,11,1,5
,,,,,,,,,,,,,,,,,,
47,1,1,24,14,2,2,Slide23.bmp,6246,6,8,0,6,5,19,16,11,1,5
,,,,,,,,,,,,,,,,,,
47,1,1,11,13,6,6,Slide21.bmp,11307,6,4,0,6,5,19,16,11,1,5
,,,,,,,,,,,,,,,,,,
47,1,1,14,9,8,8,Slide32.bmp,7389,2,0,2,6,5,19,16,11,1,5
,,,,,,,,,,,,,,,,,,
47,1,1,37,6,4,4,Slide25.bmp,10194,2,6,0,6,5,19,16,11,1,5
,,,,,,,,,,,,,,,,,,
47,1,1,62,5,6,6,Slide28.bmp,15385,2,6,0,6,5,19,16,11,1,5
,,,,,,,,,,,,,,,,,,
48,1,1,66,41,3,3,Slide32.bmp,1046,4,0,7,10,7,21,21,14,3,7
,,,,,,,,,,,,,,,,,,
48,1,1,49,38,5,5,Slide26.bmp,3270,4,5,0,10,7,21,21,14,3,7
,,,,,,,,,,,,,,,,,,
48,1,1,63,37,1,1,Slide29.bmp,2909,4,9,0,10,7,21,21,14,3,7
,,,,,,,,,,,,,,,,,,
48,1,1,40,25,1,1,Slide32.bmp,2635,7,0,9,10,7,21,21,14,3,7
,,,,,,,,,,,,,,,,,,
48,1,1,50,22,9,9,Slide27.bmp,4839,7,1,0,10,7,21,21,14,3,7
,,,,,,,,,,,,,,,,,,
48,1,1,23,21,1,1,Slide22.bmp,5442,7,1,0,10,7,21,21,14,3,7
,,,,,,,,,,,,,,,,,,
48,1,1,27,17,2,2,Slide32.bmp,2759,2,0,2,10,7,21,21,14,3,7
,,,,,,,,,,,,,,,,,,
48,1,1,24,14,4,4,Slide23.bmp,12727,2,6,0,10,7,21,21,14,3,7
,,,,,,,,,,,,,,,,,,
48,1,1,62,13,9,9,Slide28.bmp,5907,2,9,0,10,7,21,21,14,3,7
,,,,,,,,,,,,,,,,,,
48,1,1,14,9,5,5,Slide32.bmp,4131,1,0,5,10,7,21,21,14,3,7
,,,,,,,,,,,,,,,,,,
48,1,1,10,6,1,1,Slide20.bmp,6205,1,1,0,10,7,21,21,14,3,7
,,,,,,,,,,,,,,,,,,
48,1,1,36,5,1,1,Slide24.bmp,12960,1,1,0,10,7,21,21,14,3,7
,,,,,,,,,,,,,,,,,,
49,1,1,66,41,1,1,Slide32.bmp,1295,2,0,9,4,7,22,18,13,-3,5
,,,,,,,,,,,,,,,,,,
49,1,1,63,38,9,9,Slide29.bmp,3113,2,1,0,4,7,22,18,13,-3,5
,,,,,,,,,,,,,,,,,,
49,1,1,37,37,1,1,Slide25.bmp,4190,2,9,0,4,7,22,18,13,-3,5
,,,,,,,,,,,,,,,,,,
49,1,1,40,25,4,4,Slide32.bmp,4591,4,0,6,4,7,22,18,13,-3,5
,,,,,,,,,,,,,,,,,,
49,1,1,24,22,9,9,Slide23.bmp,3349,4,1,0,4,7,22,18,13,-3,5
,,,,,,,,,,,,,,,,,,
49,1,1,50,21,8,8,Slide27.bmp,4746,4,2,0,4,7,22,18,13,-3,5
,,,,,,,,,,,,,,,,,,
49,1,1,14,9,9,9,Slide32.bmp,3283,1,0,1,4,7,22,18,13,-3,5
,,,,,,,,,,,,,,,,,,
49,1,1,36,6,8,8,Slide24.bmp,3702,1,8,0,4,7,22,18,13,-3,5
,,,,,,,,,,,,,,,,,,
49,1,1,11,5,7,7,Slide21.bmp,20892,1,3,0,4,7,22,18,13,-3,5
,,,,,,,,,,,,,,,,,,
50,1,1,53,33,9,9,Slide32.bmp,1381,1,0,9,6,7,13,18,15,-1,3
,,,,,,,,,,,,,,,,,,
50,1,1,49,30,1,1,Slide26.bmp,2423,1,1,0,6,7,13,18,15,-1,3
,,,,,,,,,,,,,,,,,,
50,1,1,10,29,1,1,Slide20.bmp,6656,1,1,0,6,7,13,18,15,-1,3
,,,,,,,,,,,,,,,,,,
50,1,1,40,25,3,3,Slide32.bmp,2547,4,0,7,6,7,13,18,15,-1,3
,,,,,,,,,,,,,,,,,,
50,1,1,11,22,2,2,Slide21.bmp,3528,4,8,0,6,7,13,18,15,-1,3
,,,,,,,,,,,,,,,,,,
50,1,1,23,21,2,2,Slide22.bmp,5310,4,2,0,6,7,13,18,15,-1,3
,,,,,,,,,,,,,,,,,,
50,1,1,14,9,9,9,Slide32.bmp,2828,2,0,1,6,7,13,18,15,-1,3
,,,,,,,,,,,,,,,,,,
50,1,1,50,6,9,9,Slide27.bmp,2601,2,1,0,6,7,13,18,15,-1,3
,,,,,,,,,,,,,,,,,,
50,1,1,62,5,7,7,Slide28.bmp,14471,2,7,0,6,7,13,18,15,-1,3
,,,,,,,,,,,,,,,,,,
51,1,1,53,33,9,9,Slide32.bmp,2020,4,0,9,7,8,24,15,16,-1,-1
,,,,,,,,,,,,,,,,,,
51,1,1,24,30,7,7,Slide23.bmp,6409,4,3,0,7,8,24,15,16,-1,-1
,,,,,,,,,,,,,,,,,,
51,1,1,50,29,4,4,Slide27.bmp,7769,4,6,0,7,8,24,15,16,-1,-1
,,,,,,,,,,,,,,,,,,
51,1,1,40,25,2,2,Slide32.bmp,3789,2,0,8,7,8,24,15,16,-1,-1
,,,,,,,,,,,,,,,,,,
51,1,1,49,22,9,9,Slide26.bmp,3626,2,9,0,7,8,24,15,16,-1,-1
,,,,,,,,,,,,,,,,,,
51,1,1,23,21,7,7,Slide22.bmp,10219,2,7,0,7,8,24,15,16,-1,-1
,,,,,,,,,,,,,,,,,,
51,1,1,27,17,5,5,Slide32.bmp,2478,6,0,5,7,8,24,15,16,-1,-1
,,,,,,,,,,,,,,,,,,
51,1,1,11,14,7,7,Slide21.bmp,5046,6,3,0,7,8,24,15,16,-1,-1
,,,,,,,,,,,,,,,,,,
51,1,1,36,13,9,9,Slide24.bmp,2555,6,9,0,7,8,24,15,16,-1,-1
,,,,,,,,,,,,,,,,,,
51,1,1,14,9,3,3,Slide32.bmp,5956,1,0,7,7,8,24,15,16,-1,-1
,,,,,,,,,,,,,,,,,,
51,1,1,63,6,1,1,Slide29.bmp,6037,1,9,0,7,8,24,15,16,-1,-1
,,,,,,,,,,,,,,,,,,
51,1,1,10,5,8,8,Slide20.bmp,11755,1,8,0,7,8,24,15,16,-1,-1
,,,,,,,,,,,,,,,,,,
52,1,1,66,41,1,1,Slide32.bmp,772,1,0,9,6,9,25,16,14,-3,2
,,,,,,,,,,,,,,,,,,
52,1,1,50,38,9,9,Slide27.bmp,2426,1,1,0,6,9,25,16,14,-3,2
,,,,,,,,,,,,,,,,,,
52,1,1,36,37,9,9,Slide24.bmp,2788,1,9,0,6,9,25,16,14,-3,2
,,,,,,,,,,,,,,,,,,
52,1,1,53,33,1,1,Slide32.bmp,1231,2,0,1,6,9,25,16,14,-3,2
,,,,,,,,,,,,,,,,,,
52,1,1,62,30,9,9,Slide28.bmp,3562,2,9,0,6,9,25,16,14,-3,2
,,,,,,,,,,,,,,,,,,
52,1,1,11,29,5,5,Slide21.bmp,2778,2,5,0,6,9,25,16,14,-3,2
,,,,,,,,,,,,,,,,,,
52,1,1,27,17,4,4,Slide32.bmp,1381,4,0,4,6,9,25,16,14,-3,2
,,,,,,,,,,,,,,,,,,
52,1,1,10,14,4,4,Slide20.bmp,5082,4,4,0,6,9,25,16,14,-3,2
,,,,,,,,,,,,,,,,,,
52,1,1,23,13,1,1,Slide22.bmp,2242,4,1,0,6,9,25,16,14,-3,2
,,,,,,,,,,,,,,,,,,
52,1,1,14,9,8,8,Slide32.bmp,2954,6,0,2,6,9,25,16,14,-3,2
,,,,,,,,,,,,,,,,,,
52,1,1,49,6,9,9,Slide26.bmp,3629,6,9,0,6,9,25,16,14,-3,2
,,,,,,,,,,,,,,,,,,
52,1,1,37,5,8,8,Slide25.bmp,5521,6,2,0,6,9,25,16,14,-3,2
,,,,,,,,,,,,,,,,,,
53,1,1,66,41,4,4,Slide32.bmp,1452,1,0,6,9,5,20,20,8,4,12
,,,,,,,,,,,,,,,,,,
53,1,1,62,38,7,7,Slide28.bmp,2375,1,7,0,9,5,20,20,8,4,12
,,,,,,,,,,,,,,,,,,
53,1,1,11,37,1,1,Slide21.bmp,1739,1,9,0,9,5,20,20,8,4,12
,,,,,,,,,,,,,,,,,,
53,1,1,40,25,1,1,Slide32.bmp,2234,4,0,9,9,5,20,20,8,4,12
,,,,,,,,,,,,,,,,,,
53,1,1,24,22,2,2,Slide23.bmp,1735,4,8,0,9,5,20,20,8,4,12
,,,,,,,,,,,,,,,,,,
53,1,1,49,21,8,8,Slide26.bmp,2542,4,8,0,9,5,20,20,8,4,12
,,,,,,,,,,,,,,,,,,
53,1,1,14,9,4,4,Slide32.bmp,2431,2,0,6,9,5,20,20,8,4,12
,,,,,,,,,,,,,,,,,,
53,1,1,36,6,5,5,Slide24.bmp,5490,2,5,0,9,5,20,20,8,4,12
,,,,,,,,,,,,,,,,,,
53,1,1,50,5,3,3,Slide27.bmp,16771,2,7,0,9,5,20,20,8,4,12
,,,,,,,,,,,,,,,,,,
54,1,1,66,41,3,3,Slide32.bmp,1884,6,0,7,5,8,20,18,14,-3,4
,,,,,,,,,,,,,,,,,,
54,1,1,23,38,7,7,Slide22.bmp,12164,6,7,0,5,8,20,18,14,-3,4
,,,,,,,,,,,,,,,,,,
54,1,1,24,37,3,3,Slide23.bmp,2224,6,7,0,5,8,20,18,14,-3,4
,,,,,,,,,,,,,,,,,,
54,1,1,53,33,7,7,Slide32.bmp,1980,1,0,7,5,8,20,18,14,-3,4
,,,,,,,,,,,,,,,,,,
54,1,1,36,30,7,7,Slide24.bmp,4244,1,7,0,5,8,20,18,14,-3,4
,,,,,,,,,,,,,,,,,,
54,1,1,49,29,7,7,Slide26.bmp,4745,1,7,0,5,8,20,18,14,-3,4
,,,,,,,,,,,,,,,,,,
54,1,1,27,17,4,4,Slide32.bmp,1710,2,0,4,5,8,20,18,14,-3,4
,,,,,,,,,,,,,,,,,,
54,1,1,11,14,6,6,Slide21.bmp,6022,2,4,0,5,8,20,18,14,-3,4
,,,,,,,,,,,,,,,,,,
54,1,1,10,13,4,4,Slide20.bmp,9582,2,4,0,5,8,20,18,14,-3,4
,,,,,,,,,,,,,,,,,,
55,1,1,66,41,2,2,Slide32.bmp,588,2,0,8,7,2,19,17,10,5,7
,,,,,,,,,,,,,,,,,,
55,1,1,37,38,5,5,Slide25.bmp,2540,2,5,0,7,2,19,17,10,5,7
,,,,,,,,,,,,,,,,,,
55,1,1,24,37,3,3,Slide23.bmp,12838,2,7,0,7,2,19,17,10,5,7
,,,,,,,,,,,,,,,,,,
55,1,1,53,33,5,5,Slide32.bmp,1087,6,0,5,7,2,19,17,10,5,7
,,,,,,,,,,,,,,,,,,
55,1,1,50,30,5,5,Slide27.bmp,4411,6,5,0,7,2,19,17,10,5,7
,,,,,,,,,,,,,,,,,,
55,1,1,10,29,3,3,Slide20.bmp,5815,6,3,0,7,2,19,17,10,5,7
,,,,,,,,,,,,,,,,,,
55,1,1,40,25,2,2,Slide32.bmp,9544,4,0,8,7,2,19,17,10,5,7
,,,,,,,,,,,,,,,,,,
55,1,1,11,22,4,4,Slide21.bmp,13098,4,6,0,7,2,19,17,10,5,7
,,,,,,,,,,,,,,,,,,
55,1,1,62,21,5,5,Slide28.bmp,4500,4,5,0,7,2,19,17,10,5,7
,,,,,,,,,,,,,,,,,,
55,1,1,27,17,7,7,Slide32.bmp,2818,1,0,7,7,2,19,17,10,5,7
,,,,,,,,,,,,,,,,,,
55,1,1,36,14,5,5,Slide24.bmp,9042,1,5,0,7,2,19,17,10,5,7
,,,,,,,,,,,,,,,,,,
55,1,1,63,13,3,3,Slide29.bmp,7651,1,7,0,7,2,19,17,10,5,7
,,,,,,,,,,,,,,,,,,
56,1,1,66,41,1,1,Slide32.bmp,312,4,0,9,5,7,19,20,11,-2,9
,,,,,,,,,,,,,,,,,,
56,1,1,10,38,5,5,Slide20.bmp,2466,4,5,0,5,7,19,20,11,-2,9
,,,,,,,,,,,,,,,,,,
56,1,1,63,37,1,1,Slide29.bmp,1914,4,9,0,5,7,19,20,11,-2,9
,,,,,,,,,,,,,,,,,,
56,1,1,40,25,1,1,Slide32.bmp,679,1,0,9,5,7,19,20,11,-2,9
,,,,,,,,,,,,,,,,,,
56,1,1,11,22,1,1,Slide21.bmp,2305,1,9,0,5,7,19,20,11,-2,9
,,,,,,,,,,,,,,,,,,
56,1,1,23,21,1,1,Slide22.bmp,5833,1,1,0,5,7,19,20,11,-2,9
,,,,,,,,,,,,,,,,,,
56,1,1,27,17,9,9,Slide32.bmp,821,2,0,9,5,7,19,20,11,-2,9
,,,,,,,,,,,,,,,,,,
56,1,1,49,14,4,4,Slide26.bmp,5100,2,4,0,5,7,19,20,11,-2,9
,,,,,,,,,,,,,,,,,,
56,1,1,36,13,9,9,Slide24.bmp,3898,2,9,0,5,7,19,20,11,-2,9
,,,,,,,,,,,,,,,,,,
56,1,1,14,9,7,7,Slide32.bmp,6024,7,0,3,5,7,19,20,11,-2,9
,,,,,,,,,,,,,,,,,,
56,1,1,50,6,4,4,Slide27.bmp,2634,7,6,0,5,7,19,20,11,-2,9
,,,,,,,,,,,,,,,,,,
56,1,1,24,5,5,5,Slide23.bmp,6232,7,5,0,5,7,19,20,11,-2,9
,,,,,,,,,,,,,,,,,,
57,1,1,66,41,6,6,Slide32.bmp,2543,4,0,4,9,7,16,20,8,2,12
,,,,,,,,,,,,,,,,,,
57,1,1,50,38,5,5,Slide27.bmp,1712,4,5,0,9,7,16,20,8,2,12
,,,,,,,,,,,,,,,,,,
57,1,1,10,37,6,6,Slide20.bmp,5036,4,6,0,9,7,16,20,8,2,12
,,,,,,,,,,,,,,,,,,
57,1,1,53,33,4,4,Slide32.bmp,1854,6,0,4,9,7,16,20,8,2,12
,,,,,,,,,,,,,,,,,,
57,1,1,49,30,5,5,Slide26.bmp,2541,6,5,0,9,7,16,20,8,2,12
,,,,,,,,,,,,,,,,,,
57,1,1,63,29,3,3,Slide29.bmp,4120,6,7,0,9,7,16,20,8,2,12
,,,,,,,,,,,,,,,,,,
57,1,1,40,25,5,5,Slide32.bmp,2265,1,0,5,9,7,16,20,8,2,12
,,,,,,,,,,,,,,,,,,
57,1,1,62,22,5,5,Slide28.bmp,4079,1,5,0,9,7,16,20,8,2,12
,,,,,,,,,,,,,,,,,,
57,1,1,11,21,4,4,Slide21.bmp,11267,1,6,0,9,7,16,20,8,2,12
,,,,,,,,,,,,,,,,,,
57,1,1,27,17,3,3,Slide32.bmp,3199,2,0,3,9,7,16,20,8,2,12
,,,,,,,,,,,,,,,,,,
57,1,1,37,14,3,3,Slide25.bmp,4399,2,7,0,9,7,16,20,8,2,12
,,,,,,,,,,,,,,,,,,
57,1,1,36,13,4,4,Slide24.bmp,5983,2,4,0,9,7,16,20,8,2,12
,,,,,,,,,,,,,,,,,,
57,1,1,14,9,7,7,Slide32.bmp,7589,7,0,3,9,7,16,20,8,2,12
,,,,,,,,,,,,,,,,,,
57,1,1,24,6,5,5,Slide23.bmp,8010,7,5,0,9,7,16,20,8,2,12
,,,,,,,,,,,,,,,,,,
57,1,1,23,5,5,5,Slide22.bmp,9990,7,5,0,9,7,16,20,8,2,12
,,,,,,,,,,,,,,,,,,
58,1,1,66,41,2,2,Slide32.bmp,719,7,0,8,4,7,23,18,14,-3,4
,,,,,,,,,,,,,,,,,,
58,1,1,62,38,6,6,Slide28.bmp,2467,7,6,0,4,7,23,18,14,-3,4
,,,,,,,,,,,,,,,,,,
58,1,1,36,37,5,5,Slide24.bmp,2275,7,5,0,4,7,23,18,14,-3,4
,,,,,,,,,,,,,,,,,,
58,1,1,40,25,5,5,Slide32.bmp,1682,1,0,5,4,7,23,18,14,-3,4
,,,,,,,,,,,,,,,,,,
58,1,1,24,22,5,5,Slide23.bmp,3331,1,5,0,4,7,23,18,14,-3,4
,,,,,,,,,,,,,,,,,,
58,1,1,11,21,2,2,Slide21.bmp,2137,1,8,0,4,7,23,18,14,-3,4
,,,,,,,,,,,,,,,,,,
58,1,1,27,17,3,3,Slide32.bmp,6759,2,0,3,4,7,23,18,14,-3,4
,,,,,,,,,,,,,,,,,,
58,1,1,23,14,5,5,Slide22.bmp,4601,2,5,0,4,7,23,18,14,-3,4
,,,,,,,,,,,,,,,,,,
58,1,1,37,13,3,3,Slide25.bmp,5166,2,7,0,4,7,23,18,14,-3,4
,,,,,,,,,,,,,,,,,,
59,1,1,40,25,1,1,Slide32.bmp,1417,1,0,9,9,7,20,15,16,2,-1
,,,,,,,,,,,,,,,,,,
59,1,1,11,22,1,1,Slide21.bmp,4227,1,9,0,9,7,20,15,16,2,-1
,,,,,,,,,,,,,,,,,,
59,1,1,50,21,8,8,Slide27.bmp,7100,1,2,0,9,7,20,15,16,2,-1
,,,,,,,,,,,,,,,,,,
59,1,1,27,17,9,9,Slide32.bmp,1613,2,0,9,9,7,20,15,16,2,-1
,,,,,,,,,,,,,,,,,,
59,1,1,23,14,1,1,Slide22.bmp,3822,2,1,0,9,7,20,15,16,2,-1
,,,,,,,,,,,,,,,,,,
59,1,1,63,13,1,1,Slide29.bmp,3768,2,9,0,9,7,20,15,16,2,-1
,,,,,,,,,,,,,,,,,,
59,1,1,14,9,9,9,Slide32.bmp,3862,4,0,1,9,7,20,15,16,2,-1
,,,,,,,,,,,,,,,,,,
59,1,1,10,6,7,7,Slide20.bmp,8394,4,7,0,9,7,20,15,16,2,-1
,,,,,,,,,,,,,,,,,,
59,1,1,62,5,7,7,Slide28.bmp,9996,4,7,0,9,7,20,15,16,2,-1
,,,,,,,,,,,,,,,,,,
60,1,1,40,25,3,3,Slide32.bmp,1915,4,0,7,5,7,17,17,8,-2,9
,,,,,,,,,,,,,,,,,,
60,1,1,10,22,3,3,Slide20.bmp,3264,4,3,0,5,7,17,17,8,-2,9
,,,,,,,,,,,,,,,,,,
60,1,1,36,21,6,6,Slide24.bmp,4027,4,6,0,5,7,17,17,8,-2,9
,,,,,,,,,,,,,,,,,,
60,1,1,27,17,8,8,Slide32.bmp,1747,1,0,8,5,7,17,17,8,-2,9
,,,,,,,,,,,,,,,,,,
60,1,1,49,14,3,3,Slide26.bmp,4110,1,3,0,5,7,17,17,8,-2,9
,,,,,,,,,,,,,,,,,,
60,1,1,50,13,4,4,Slide27.bmp,4068,1,6,0,5,7,17,17,8,-2,9
,,,,,,,,,,,,,,,,,,
61,1,1,53,33,2,2,Slide32.bmp,1786,1,0,2,8,6,17,20,6,2,14
,,,,,,,,,,,,,,,,,,
61,1,1,23,30,5,5,Slide22.bmp,2309,1,5,0,8,6,17,20,6,2,14
,,,,,,,,,,,,,,,,,,
61,1,1,11,29,8,8,Slide21.bmp,2531,1,2,0,8,6,17,20,6,2,14
,,,,,,,,,,,,,,,,,,
61,1,1,14,9,1,1,Slide32.bmp,2493,6,0,9,8,6,17,20,6,2,14
,,,,,,,,,,,,,,,,,,
61,1,1,63,6,8,8,Slide29.bmp,5760,6,2,0,8,6,17,20,6,2,14
,,,,,,,,,,,,,,,,,,
61,1,1,36,5,6,6,Slide24.bmp,11480,6,6,0,8,6,17,20,6,2,14
,,,,,,,,,,,,,,,,,,
62,1,1,66,41,2,2,Slide32.bmp,2772,7,0,8,9,7,23,20,9,2,11
,,,,,,,,,,,,,,,,,,
62,1,1,49,38,7,7,Slide26.bmp,2626,7,7,0,9,7,23,20,9,2,11
,,,,,,,,,,,,,,,,,,
62,1,1,23,37,5,5,Slide22.bmp,2463,7,5,0,9,7,23,20,9,2,11
,,,,,,,,,,,,,,,,,,
62,1,1,40,25,3,3,Slide32.bmp,2461,6,0,7,9,7,23,20,9,2,11
,,,,,,,,,,,,,,,,,,
62,1,1,24,22,5,5,Slide23.bmp,6979,6,5,0,9,7,23,20,9,2,11
,,,,,,,,,,,,,,,,,,
62,1,1,63,21,5,5,Slide29.bmp,13243,6,5,0,9,7,23,20,9,2,11
,,,,,,,,,,,,,,,,,,
62,1,1,27,17,8,8,Slide32.bmp,7244,1,0,8,9,7,23,20,9,2,11
,,,,,,,,,,,,,,,,,,
62,1,1,11,14,5,5,Slide21.bmp,3434,1,5,0,9,7,23,20,9,2,11
,,,,,,,,,,,,,,,,,,
62,1,1,62,13,6,6,Slide28.bmp,6315,1,6,0,9,7,23,20,9,2,11
,,,,,,,,,,,,,,,,,,
62,1,1,14,9,8,8,Slide32.bmp,4653,4,0,2,9,7,23,20,9,2,11
,,,,,,,,,,,,,,,,,,
62,1,1,50,6,4,4,Slide27.bmp,11349,4,6,0,9,7,23,20,9,2,11
,,,,,,,,,,,,,,,,,,
62,1,1,36,5,5,5,Slide24.bmp,8738,4,5,0,9,7,23,20,9,2,11
,,,,,,,,,,,,,,,,,,
63,1,1,53,33,5,5,Slide32.bmp,1898,1,0,5,4,7,17,19,8,-3,11
,,,,,,,,,,,,,,,,,,
63,1,1,36,30,8,8,Slide24.bmp,3730,1,8,0,4,7,17,19,8,-3,11
,,,,,,,,,,,,,,,,,,
63,1,1,50,29,6,6,Slide27.bmp,5701,1,4,0,4,7,17,19,8,-3,11
,,,,,,,,,,,,,,,,,,
63,1,1,27,17,9,9,Slide32.bmp,3698,2,0,9,4,7,17,19,8,-3,11
,,,,,,,,,,,,,,,,,,
63,1,1,24,14,2,2,Slide23.bmp,3646,2,8,0,4,7,17,19,8,-3,11
,,,,,,,,,,,,,,,,,,
63,1,1,11,13,3,3,Slide21.bmp,5773,2,7,0,4,7,17,19,8,-3,11
,,,,,,,,,,,,,,,,,,
63,1,1,14,9,1,1,Slide32.bmp,2104,4,0,9,4,7,17,19,8,-3,11
,,,,,,,,,,,,,,,,,,
63,1,1,49,6,5,5,Slide26.bmp,9608,4,5,0,4,7,17,19,8,-3,11
,,,,,,,,,,,,,,,,,,
63,1,1,37,5,4,4,Slide25.bmp,10066,4,6,0,4,7,17,19,8,-3,11
,,,,,,,,,,,,,,,,,,
64,1,1,66,41,2,2,Slide32.bmp,2692,6,0,8,8,8,23,13,9,0,4
,,,,,,,,,,,,,,,,,,
64,1,1,24,38,2,2,Slide23.bmp,1684,6,8,0,8,8,23,13,9,0,4
,,,,,,,,,,,,,,,,,,
64,1,1,50,37,6,6,Slide27.bmp,9661,6,4,0,8,8,23,13,9,0,4
,,,,,,,,,,,,,,,,,,
64,1,1,40,25,2,2,Slide32.bmp,2657,1,0,8,8,8,23,13,9,0,4
,,,,,,,,,,,,,,,,,,
64,1,1,36,22,7,7,Slide24.bmp,5997,1,7,0,8,8,23,13,9,0,4
,,,,,,,,,,,,,,,,,,
64,1,1,10,21,3,3,Slide20.bmp,3134,1,3,0,8,8,23,13,9,0,4
,,,,,,,,,,,,,,,,,,
64,1,1,27,17,8,8,Slide32.bmp,3053,4,0,8,8,8,23,13,9,0,4
,,,,,,,,,,,,,,,,,,
64,1,1,49,14,5,5,Slide26.bmp,11078,4,5,0,8,8,23,13,9,0,4
,,,,,,,,,,,,,,,,,,
64,1,1,62,13,7,7,Slide28.bmp,5026,4,7,0,8,8,23,13,9,0,4
,,,,,,,,,,,,,,,,,,
64,1,1,14,9,7,7,Slide32.bmp,8276,2,0,3,8,8,23,13,9,0,4
,,,,,,,,,,,,,,,,,,
64,1,1,63,6,6,6,Slide29.bmp,13411,2,4,0,8,8,23,13,9,0,4
,,,,,,,,,,,,,,,,,,
64,1,1,23,5,4,4,Slide22.bmp,18010,2,4,0,8,8,23,13,9,0,4
,,,,,,,,,,,,,,,,,,
65,1,1,66,41,6,6,Slide32.bmp,1905,2,0,4,9,6,17,17,15,3,2
,,,,,,,,,,,,,,,,,,
65,1,1,10,38,3,3,Slide20.bmp,4712,2,3,0,9,6,17,17,15,3,2
,,,,,,,,,,,,,,,,,,
65,1,1,11,37,4,4,Slide21.bmp,4819,2,6,0,9,6,17,17,15,3,2
,,,,,,,,,,,,,,,,,,
65,1,1,40,25,3,3,Slide32.bmp,3359,1,0,7,9,6,17,17,15,3,2
,,,,,,,,,,,,,,,,,,
65,1,1,63,22,3,3,Slide29.bmp,8896,1,7,0,9,6,17,17,15,3,2
,,,,,,,,,,,,,,,,,,
65,1,1,62,21,8,8,Slide28.bmp,9373,1,8,0,9,6,17,17,15,3,2
,,,,,,,,,,,,,,,,,,
65,1,1,27,17,3,3,Slide32.bmp,5150,4,0,3,9,6,17,17,15,3,2
,,,,,,,,,,,,,,,,,,
65,1,1,24,14,6,6,Slide23.bmp,11102,4,4,0,9,6,17,17,15,3,2
,,,,,,,,,,,,,,,,,,
65,1,1,36,13,6,6,Slide24.bmp,9060,4,6,0,9,6,17,17,15,3,2
,,,,,,,,,,,,,,,,,,
66,1,1,53,33,9,9,Slide32.bmp,955,2,0,9,6,6,13,20,10,0,10
,,,,,,,,,,,,,,,,,,
66,1,1,11,30,4,4,Slide21.bmp,10348,2,6,0,6,6,13,20,10,0,10
,,,,,,,,,,,,,,,,,,
66,1,1,50,29,8,8,Slide27.bmp,4704,2,2,0,6,6,13,20,10,0,10
,,,,,,,,,,,,,,,,,,
66,1,1,40,25,6,6,Slide32.bmp,2473,4,0,4,6,6,13,20,10,0,10
,,,,,,,,,,,,,,,,,,
66,1,1,10,22,6,6,Slide20.bmp,8879,4,6,0,6,6,13,20,10,0,10
,,,,,,,,,,,,,,,,,,
66,1,1,24,21,2,2,Slide23.bmp,2589,4,8,0,6,6,13,20,10,0,10
,,,,,,,,,,,,,,,,,,
66,1,1,27,17,7,7,Slide32.bmp,2100,1,0,7,6,6,13,20,10,0,10
,,,,,,,,,,,,,,,,,,
66,1,1,49,14,9,9,Slide26.bmp,6016,1,9,0,6,6,13,20,10,0,10
,,,,,,,,,,,,,,,,,,
66,1,1,62,13,8,8,Slide28.bmp,6550,1,8,0,6,6,13,20,10,0,10
,,,,,,,,,,,,,,,,,,
66,1,1,14,9,4,4,Slide32.bmp,4127,6,0,6,6,6,13,20,10,0,10
,,,,,,,,,,,,,,,,,,
66,1,1,63,6,1,1,Slide29.bmp,2685,6,9,0,6,6,13,20,10,0,10
,,,,,,,,,,,,,,,,,,
66,1,1,23,5,2,2,Slide22.bmp,8853,6,2,0,6,6,13,20,10,0,10
,,,,,,,,,,,,,,,,,,
67,1,1,66,41,1,1,Slide32.bmp,631,6,0,9,7,5,19,19,10,2,9
,,,,,,,,,,,,,,,,,,
67,1,1,37,38,2,2,Slide25.bmp,2127,6,8,0,7,5,19,19,10,2,9
,,,,,,,,,,,,,,,,,,
67,1,1,24,37,2,2,Slide23.bmp,1981,6,8,0,7,5,19,19,10,2,9
,,,,,,,,,,,,,,,,,,
67,1,1,53,33,5,5,Slide32.bmp,1662,1,0,5,7,5,19,19,10,2,9
,,,,,,,,,,,,,,,,,,
67,1,1,23,30,6,6,Slide22.bmp,3823,1,6,0,7,5,19,19,10,2,9
,,,,,,,,,,,,,,,,,,
67,1,1,10,29,6,6,Slide20.bmp,5842,1,6,0,7,5,19,19,10,2,9
,,,,,,,,,,,,,,,,,,
67,1,1,27,17,8,8,Slide32.bmp,1712,2,0,8,7,5,19,19,10,2,9
,,,,,,,,,,,,,,,,,,
67,1,1,49,14,7,7,Slide26.bmp,3619,2,7,0,7,5,19,19,10,2,9
,,,,,,,,,,,,,,,,,,
67,1,1,62,13,8,8,Slide28.bmp,4293,2,8,0,7,5,19,19,10,2,9
,,,,,,,,,,,,,,,,,,
67,1,1,14,9,7,7,Slide32.bmp,3551,4,0,3,7,5,19,19,10,2,9
,,,,,,,,,,,,,,,,,,
67,1,1,50,6,3,3,Slide27.bmp,5229,4,7,0,7,5,19,19,10,2,9
,,,,,,,,,,,,,,,,,,
67,1,1,36,5,7,7,Slide24.bmp,10534,4,7,0,7,5,19,19,10,2,9
,,,,,,,,,,,,,,,,,,
68,1,1,53,33,8,8,Slide32.bmp,2447,6,0,8,5,5,21,19,9,0,10
,,,,,,,,,,,,,,,,,,
68,1,1,49,30,4,4,Slide26.bmp,7527,6,4,0,5,5,21,19,9,0,10
,,,,,,,,,,,,,,,,,,
68,1,1,50,29,3,3,Slide27.bmp,4229,6,7,0,5,5,21,19,9,0,10
,,,,,,,,,,,,,,,,,,
68,1,1,40,25,4,4,Slide32.bmp,2670,2,0,6,5,5,21,19,9,0,10
,,,,,,,,,,,,,,,,,,
68,1,1,23,22,5,5,Slide22.bmp,4596,2,5,0,5,5,21,19,9,0,10
,,,,,,,,,,,,,,,,,,
68,1,1,37,21,1,1,Slide25.bmp,3637,2,9,0,5,5,21,19,9,0,10
,,,,,,,,,,,,,,,,,,
68,1,1,27,17,8,8,Slide32.bmp,3192,1,0,8,5,5,21,19,9,0,10
,,,,,,,,,,,,,,,,,,
68,1,1,11,14,3,3,Slide21.bmp,10795,1,7,0,5,5,21,19,9,0,10
,,,,,,,,,,,,,,,,,,
68,1,1,10,13,7,7,Slide20.bmp,7568,1,7,0,5,5,21,19,9,0,10
,,,,,,,,,,,,,,,,,,
69,1,1,66,41,1,1,Slide32.bmp,661,1,0,9,9,5,21,24,11,4,13
,,,,,,,,,,,,,,,,,,
69,1,1,63,38,1,1,Slide29.bmp,1469,1,9,0,9,5,21,24,11,4,13
,,,,,,,,,,,,,,,,,,
69,1,1,24,37,1,1,Slide23.bmp,2681,1,9,0,9,5,21,24,11,4,13
,,,,,,,,,,,,,,,,,,
69,1,1,40,25,4,4,Slide32.bmp,1824,4,0,6,9,5,21,24,11,4,13
,,,,,,,,,,,,,,,,,,
69,1,1,62,22,9,9,Slide28.bmp,3334,4,9,0,9,5,21,24,11,4,13
,,,,,,,,,,,,,,,,,,
69,1,1,36,21,7,7,Slide24.bmp,7546,4,7,0,9,5,21,24,11,4,13
,,,,,,,,,,,,,,,,,,
69,1,1,27,17,1,1,Slide32.bmp,554,2,0,1,9,5,21,24,11,4,13
,,,,,,,,,,,,,,,,,,
69,1,1,23,14,5,5,Slide22.bmp,3554,2,5,0,9,5,21,24,11,4,13
,,,,,,,,,,,,,,,,,,
69,1,1,49,13,5,5,Slide26.bmp,6057,2,5,0,9,5,21,24,11,4,13
,,,,,,,,,,,,,,,,,,
70,1,1,66,41,9,9,Slide32.bmp,3382,2,0,1,9,6,24,16,15,3,1
,,,,,,,,,,,,,,,,,,
70,1,1,50,38,7,7,Slide27.bmp,6072,2,3,0,9,6,24,16,15,3,1
,,,,,,,,,,,,,,,,,,
70,1,1,63,37,4,4,Slide29.bmp,3692,2,6,0,9,6,24,16,15,3,1
,,,,,,,,,,,,,,,,,,
70,1,1,53,33,7,7,Slide32.bmp,2043,6,0,7,9,6,24,16,15,3,1
,,,,,,,,,,,,,,,,,,
70,1,1,37,30,2,2,Slide25.bmp,1623,6,8,0,9,6,24,16,15,3,1
,,,,,,,,,,,,,,,,,,
70,1,1,36,29,7,7,Slide24.bmp,2050,6,7,0,9,6,24,16,15,3,1
,,,,,,,,,,,,,,,,,,
70,1,1,40,25,1,1,Slide32.bmp,1541,4,0,9,9,6,24,16,15,3,1
,,,,,,,,,,,,,,,,,,
70,1,1,10,22,8,8,Slide20.bmp,2411,4,8,0,9,6,24,16,15,3,1
,,,,,,,,,,,,,,,,,,
70,1,1,49,21,7,7,Slide26.bmp,3439,4,7,0,9,6,24,16,15,3,1
,,,,,,,,,,,,,,,,,,
70,1,1,27,17,4,4,Slide32.bmp,1635,1,0,4,9,6,24,16,15,3,1
,,,,,,,,,,,,,,,,,,
70,1,1,11,14,2,2,Slide21.bmp,2260,1,8,0,9,6,24,16,15,3,1
,,,,,,,,,,,,,,,,,,
70,1,1,62,13,9,9,Slide28.bmp,3099,1,9,0,9,6,24,16,15,3,1
,,,,,,,,,,,,,,,,,,
71,1,1,66,41,1,1,Slide32.bmp,1289,6,0,9,9,7,25,23,9,2,14
,,,,,,,,,,,,,,,,,,
71,1,1,11,38,1,1,Slide21.bmp,4170,6,9,0,9,7,25,23,9,2,14
,,,,,,,,,,,,,,,,,,
71,1,1,50,37,1,1,Slide27.bmp,3495,6,9,0,9,7,25,23,9,2,14
,,,,,,,,,,,,,,,,,,
71,1,1,40,25,2,2,Slide32.bmp,1159,1,0,8,9,7,25,23,9,2,14
,,,,,,,,,,,,,,,,,,
71,1,1,36,22,8,8,Slide24.bmp,2426,1,8,0,9,7,25,23,9,2,14
,,,,,,,,,,,,,,,,,,
71,1,1,24,21,2,2,Slide23.bmp,3724,1,8,0,9,7,25,23,9,2,14
,,,,,,,,,,,,,,,,,,
71,1,1,27,17,9,9,Slide32.bmp,2679,2,0,9,9,7,25,23,9,2,14
,,,,,,,,,,,,,,,,,,
71,1,1,23,14,5,5,Slide22.bmp,4776,2,5,0,9,7,25,23,9,2,14
,,,,,,,,,,,,,,,,,,
71,1,1,37,13,3,3,Slide25.bmp,3422,2,7,0,9,7,25,23,9,2,14
,,,,,,,,,,,,,,,,,,
71,1,1,14,9,1,1,Slide32.bmp,1688,4,0,9,9,7,25,23,9,2,14
,,,,,,,,,,,,,,,,,,
71,1,1,49,6,4,4,Slide26.bmp,4215,4,4,0,9,7,25,23,9,2,14
,,,,,,,,,,,,,,,,,,
71,1,1,63,5,1,1,Slide29.bmp,5050,4,9,0,9,7,25,23,9,2,14
,,,,,,,,,,,,,,,,,,
72,1,1,53,33,1,1,Slide32.bmp,541,4,0,1,13,3,17,13,13,10,0
,,,,,,,,,,,,,,,,,,
72,1,1,37,30,3,3,Slide25.bmp,4365,4,7,0,13,3,17,13,13,10,0
,,,,,,,,,,,,,,,,,,
72,1,1,23,29,5,5,Slide22.bmp,2154,4,5,0,13,3,17,13,13,10,0
,,,,,,,,,,,,,,,,,,
72,1,1,40,25,5,5,Slide32.bmp,2127,1,0,5,13,3,17,13,13,10,0
,,,,,,,,,,,,,,,,,,
72,1,1,10,22,3,3,Slide20.bmp,3254,1,3,0,13,3,17,13,13,10,0
,,,,,,,,,,,,,,,,,,
72,1,1,63,21,4,4,Slide29.bmp,2628,1,6,0,13,3,17,13,13,10,0
,,,,,,,,,,,,,,,,,,
72,1,1,27,17,4,4,Slide32.bmp,1661,2,0,4,13,3,17,13,13,10,0
,,,,,,,,,,,,,,,,,,
72,1,1,49,14,7,7,Slide26.bmp,2859,2,7,0,13,3,17,13,13,10,0
,,,,,,,,,,,,,,,,,,
72,1,1,50,13,5,5,Slide27.bmp,3133,2,5,0,13,3,17,13,13,10,0
,,,,,,,,,,,,,,,,,,
73,1,1,66,41,1,1,Slide32.bmp,1551,2,0,9,5,8,24,22,5,-3,17
,,,,,,,,,,,,,,,,,,
73,1,1,11,38,3,3,Slide21.bmp,3141,2,7,0,5,8,24,22,5,-3,17
,,,,,,,,,,,,,,,,,,
73,1,1,49,37,8,8,Slide26.bmp,2770,2,8,0,5,8,24,22,5,-3,17
,,,,,,,,,,,,,,,,,,
73,1,1,53,33,8,8,Slide32.bmp,732,1,0,8,5,8,24,22,5,-3,17
,,,,,,,,,,,,,,,,,,
73,1,1,62,30,9,9,Slide28.bmp,2488,1,9,0,5,8,24,22,5,-3,17
,,,,,,,,,,,,,,,,,,
73,1,1,63,29,4,4,Slide29.bmp,4609,1,6,0,5,8,24,22,5,-3,17
,,,,,,,,,,,,,,,,,,
73,1,1,40,25,1,1,Slide32.bmp,533,6,0,9,5,8,24,22,5,-3,17
,,,,,,,,,,,,,,,,,,
73,1,1,37,22,4,4,Slide25.bmp,3153,6,6,0,5,8,24,22,5,-3,17
,,,,,,,,,,,,,,,,,,
73,1,1,36,21,8,8,Slide24.bmp,2072,6,8,0,5,8,24,22,5,-3,17
,,,,,,,,,,,,,,,,,,
73,1,1,27,17,5,5,Slide32.bmp,1916,4,0,5,5,8,24,22,5,-3,17
,,,,,,,,,,,,,,,,,,
73,1,1,50,14,7,7,Slide27.bmp,5006,4,3,0,5,8,24,22,5,-3,17
,,,,,,,,,,,,,,,,,,
73,1,1,10,13,6,6,Slide20.bmp,8457,4,6,0,5,8,24,22,5,-3,17
,,,,,,,,,,,,,,,,,,
74,1,1,66,41,3,3,Slide32.bmp,908,4,0,7,9,7,17,19,12,2,7
,,,,,,,,,,,,,,,,,,
74,1,1,11,38,6,6,Slide21.bmp,7101,4,4,0,9,7,17,19,12,2,7
,,,,,,,,,,,,,,,,,,
74,1,1,49,37,7,7,Slide26.bmp,7610,4,7,0,9,7,17,19,12,2,7
,,,,,,,,,,,,,,,,,,
74,1,1,53,33,8,8,Slide32.bmp,2317,1,0,8,9,7,17,19,12,2,7
,,,,,,,,,,,,,,,,,,
74,1,1,24,30,7,7,Slide23.bmp,5365,1,3,0,9,7,17,19,12,2,7
,,,,,,,,,,,,,,,,,,
74,1,1,23,29,5,5,Slide22.bmp,4441,1,5,0,9,7,17,19,12,2,7
,,,,,,,,,,,,,,,,,,
75,1,1,66,41,3,3,Slide32.bmp,474,6,0,7,6,7,19,17,9,-1,8
,,,,,,,,,,,,,,,,,,
75,1,1,37,38,1,1,Slide25.bmp,1946,6,9,0,6,7,19,17,9,-1,8
,,,,,,,,,,,,,,,,,,
75,1,1,49,37,9,9,Slide26.bmp,1759,6,9,0,6,7,19,17,9,-1,8
,,,,,,,,,,,,,,,,,,
75,1,1,53,33,9,9,Slide32.bmp,610,7,0,9,6,7,19,17,9,-1,8
,,,,,,,,,,,,,,,,,,
75,1,1,10,30,1,1,Slide20.bmp,1691,7,1,0,6,7,19,17,9,-1,8
,,,,,,,,,,,,,,,,,,
75,1,1,23,29,6,6,Slide22.bmp,5564,7,6,0,6,7,19,17,9,-1,8
,,,,,,,,,,,,,,,,,,
75,1,1,40,25,5,5,Slide32.bmp,2180,1,0,5,6,7,19,17,9,-1,8
,,,,,,,,,,,,,,,,,,
75,1,1,50,22,3,3,Slide27.bmp,5058,1,7,0,6,7,19,17,9,-1,8
,,,,,,,,,,,,,,,,,,
75,1,1,11,21,1,1,Slide21.bmp,2677,1,9,0,6,7,19,17,9,-1,8
,,,,,,,,,,,,,,,,,,
75,1,1,27,17,5,5,Slide32.bmp,2072,2,0,5,6,7,19,17,9,-1,8
,,,,,,,,,,,,,,,,,,
75,1,1,24,14,5,5,Slide23.bmp,6235,2,5,0,6,7,19,17,9,-1,8
,,,,,,,,,,,,,,,,,,
75,1,1,62,13,8,8,Slide28.bmp,3693,2,8,0,6,7,19,17,9,-1,8
,,,,,,,,,,,,,,,,,,
75,1,1,14,9,9,9,Slide32.bmp,2258,4,0,1,6,7,19,17,9,-1,8
,,,,,,,,,,,,,,,,,,
75,1,1,36,6,8,8,Slide24.bmp,4677,4,8,0,6,7,19,17,9,-1,8
,,,,,,,,,,,,,,,,,,
75,1,1,63,5,3,3,Slide29.bmp,11348,4,7,0,6,7,19,17,9,-1,8
,,,,,,,,,,,,,,,,,,
76,1,1,40,25,3,3,Slide32.bmp,1495,2,0,7,9,5,21,14,17,4,-3
,,,,,,,,,,,,,,,,,,
76,1,1,50,22,1,1,Slide27.bmp,4428,2,9,0,9,5,21,14,17,4,-3
,,,,,,,,,,,,,,,,,,
76,1,1,24,21,1,1,Slide23.bmp,2828,2,9,0,9,5,21,14,17,4,-3
,,,,,,,,,,,,,,,,,,
76,1,1,27,17,9,9,Slide32.bmp,3033,4,0,9,9,5,21,14,17,4,-3
,,,,,,,,,,,,,,,,,,
76,1,1,36,14,9,9,Slide24.bmp,8377,4,9,0,9,5,21,14,17,4,-3
,,,,,,,,,,,,,,,,,,
76,1,1,49,13,9,9,Slide26.bmp,3433,4,9,0,9,5,21,14,17,4,-3
,,,,,,,,,,,,,,,,,,
76,1,1,14,9,7,7,Slide32.bmp,4038,1,0,3,9,5,21,14,17,4,-3
,,,,,,,,,,,,,,,,,,
76,1,1,37,6,1,1,Slide25.bmp,3536,1,9,0,9,5,21,14,17,4,-3
,,,,,,,,,,,,,,,,,,
76,1,1,63,5,2,2,Slide29.bmp,11567,1,8,0,9,5,21,14,17,4,-3
,,,,,,,,,,,,,,,,,,
77,1,1,66,41,3,3,Slide32.bmp,1373,1,0,7,6,6,22,19,10,0,9
,,,,,,,,,,,,,,,,,,
77,1,1,36,38,8,8,Slide24.bmp,3579,1,8,0,6,6,22,19,10,0,9
,,,,,,,,,,,,,,,,,,
77,1,1,63,37,3,3,Slide29.bmp,2360,1,7,0,6,6,22,19,10,0,9
,,,,,,,,,,,,,,,,,,
77,1,1,53,33,8,8,Slide32.bmp,1655,2,0,8,6,6,22,19,10,0,9
,,,,,,,,,,,,,,,,,,
77,1,1,37,30,4,4,Slide25.bmp,2682,2,6,0,6,6,22,19,10,0,9
,,,,,,,,,,,,,,,,,,
77,1,1,50,29,3,3,Slide27.bmp,2012,2,7,0,6,6,22,19,10,0,9
,,,,,,,,,,,,,,,,,,
77,1,1,14,9,2,2,Slide32.bmp,2538,4,0,8,6,6,22,19,10,0,9
,,,,,,,,,,,,,,,,,,
77,1,1,62,6,8,8,Slide28.bmp,3838,4,8,0,6,6,22,19,10,0,9
,,,,,,,,,,,,,,,,,,
77,1,1,11,5,5,5,Slide21.bmp,10778,4,5,0,6,6,22,19,10,0,9
,,,,,,,,,,,,,,,,,,
78,1,1,53,33,7,7,Slide32.bmp,909,2,0,7,8,2,10,15,14,6,1
,,,,,,,,,,,,,,,,,,
78,1,1,24,30,3,3,Slide23.bmp,3388,2,7,0,8,2,10,15,14,6,1
,,,,,,,,,,,,,,,,,,
78,1,1,11,29,3,3,Slide21.bmp,4698,2,7,0,8,2,10,15,14,6,1
,,,,,,,,,,,,,,,,,,
78,1,1,27,17,9,9,Slide32.bmp,609,4,0,9,8,2,10,15,14,6,1
,,,,,,,,,,,,,,,,,,
78,1,1,23,14,6,6,Slide22.bmp,5355,4,6,0,8,2,10,15,14,6,1
,,,,,,,,,,,,,,,,,,
78,1,1,50,13,3,3,Slide27.bmp,4356,4,7,0,8,2,10,15,14,6,1
,,,,,,,,,,,,,,,,,,
78,1,1,14,9,5,5,Slide32.bmp,7485,1,0,5,8,2,10,15,14,6,1
,,,,,,,,,,,,,,,,,,
78,1,1,10,6,4,4,Slide20.bmp,12544,1,4,0,8,2,10,15,14,6,1
,,,,,,,,,,,,,,,,,,
78,1,1,62,5,8,8,Slide28.bmp,9276,1,8,0,8,2,10,15,14,6,1
,,,,,,,,,,,,,,,,,,
79,1,1,53,33,7,7,Slide32.bmp,1981,4,0,7,4,7,20,17,12,-3,5
,,,,,,,,,,,,,,,,,,
79,1,1,62,30,9,9,Slide28.bmp,3913,4,9,0,4,7,20,17,12,-3,5
,,,,,,,,,,,,,,,,,,
79,1,1,37,29,1,1,Slide25.bmp,2954,4,9,0,4,7,20,17,12,-3,5
,,,,,,,,,,,,,,,,,,
79,1,1,40,25,3,3,Slide32.bmp,2299,1,0,7,4,7,20,17,12,-3,5
,,,,,,,,,,,,,,,,,,
79,1,1,49,22,8,8,Slide26.bmp,2610,1,8,0,4,7,20,17,12,-3,5
,,,,,,,,,,,,,,,,,,
79,1,1,10,21,3,3,Slide20.bmp,8902,1,3,0,4,7,20,17,12,-3,5
,,,,,,,,,,,,,,,,,,
79,1,1,27,17,5,5,Slide32.bmp,1938,2,0,5,4,7,20,17,12,-3,5
,,,,,,,,,,,,,,,,,,
79,1,1,63,14,1,1,Slide29.bmp,1841,2,9,0,4,7,20,17,12,-3,5
,,,,,,,,,,,,,,,,,,
79,1,1,23,13,1,1,Slide22.bmp,5359,2,1,0,4,7,20,17,12,-3,5
,,,,,,,,,,,,,,,,,,
80,1,1,66,41,1,1,Slide32.bmp,1284,4,0,9,4,4,25,14,14,0,0
,,,,,,,,,,,,,,,,,,
80,1,1,11,38,8,8,Slide21.bmp,4641,4,2,0,4,4,25,14,14,0,0
,,,,,,,,,,,,,,,,,,
80,1,1,50,37,2,2,Slide27.bmp,5446,4,8,0,4,4,25,14,14,0,0
,,,,,,,,,,,,,,,,,,
80,1,1,53,33,9,9,Slide32.bmp,1637,7,0,9,4,4,25,14,14,0,0
,,,,,,,,,,,,,,,,,,
80,1,1,10,30,2,2,Slide20.bmp,6853,7,2,0,4,4,25,14,14,0,0
,,,,,,,,,,,,,,,,,,
80,1,1,63,29,6,6,Slide29.bmp,6536,7,4,0,4,4,25,14,14,0,0
,,,,,,,,,,,,,,,,,,
80,1,1,40,25,1,1,Slide32.bmp,2256,1,0,9,4,4,25,14,14,0,0
,,,,,,,,,,,,,,,,,,
80,1,1,23,22,5,5,Slide22.bmp,4219,1,5,0,4,4,25,14,14,0,0
,,,,,,,,,,,,,,,,,,
80,1,1,49,21,4,4,Slide26.bmp,9405,1,4,0,4,4,25,14,14,0,0
,,,,,,,,,,,,,,,,,,
80,1,1,14,9,9,9,Slide32.bmp,5242,2,0,1,4,4,25,14,14,0,0
,,,,,,,,,,,,,,,,,,
80,1,1,24,6,2,2,Slide23.bmp,5964,2,8,0,4,4,25,14,14,0,0
,,,,,,,,,,,,,,,,,,
80,1,1,62,5,8,8,Slide28.bmp,8050,2,8,0,4,4,25,14,14,0,0
,,,,,,,,,,,,,,,,,,
81,1,1,66,41,7,7,Slide32.bmp,2428,1,0,3,5,4,22,18,9,1,9
,,,,,,,,,,,,,,,,,,
81,1,1,49,38,9,9,Slide26.bmp,2509,1,9,0,5,4,22,18,9,1,9
,,,,,,,,,,,,,,,,,,
81,1,1,37,37,2,2,Slide25.bmp,2077,1,8,0,5,4,22,18,9,1,9
,,,,,,,,,,,,,,,,,,
81,1,1,27,17,8,8,Slide32.bmp,4365,4,0,8,5,4,22,18,9,1,9
,,,,,,,,,,,,,,,,,,
81,1,1,62,14,8,8,Slide28.bmp,6426,4,8,0,5,4,22,18,9,1,9
,,,,,,,,,,,,,,,,,,
81,1,1,50,13,3,3,Slide27.bmp,2628,4,7,0,5,4,22,18,9,1,9
,,,,,,,,,,,,,,,,,,
81,1,1,14,9,4,4,Slide32.bmp,4431,2,0,6,5,4,22,18,9,1,9
,,,,,,,,,,,,,,,,,,
81,1,1,11,6,5,5,Slide21.bmp,4622,2,5,0,5,4,22,18,9,1,9
,,,,,,,,,,,,,,,,,,
81,1,1,10,5,4,4,Slide20.bmp,8252,2,4,0,5,4,22,18,9,1,9
,,,,,,,,,,,,,,,,,,
82,1,1,53,33,1,1,Slide32.bmp,1545,4,0,1,6,7,16,18,6,-1,12
,,,,,,,,,,,,,,,,,,
82,1,1,62,30,7,7,Slide28.bmp,5044,4,7,0,6,7,16,18,6,-1,12
,,,,,,,,,,,,,,,,,,
82,1,1,63,29,8,8,Slide29.bmp,3673,4,2,0,6,7,16,18,6,-1,12
,,,,,,,,,,,,,,,,,,
82,1,1,40,25,1,1,Slide32.bmp,1064,1,0,9,6,7,16,18,6,-1,12
,,,,,,,,,,,,,,,,,,
82,1,1,50,22,3,3,Slide27.bmp,3863,1,7,0,6,7,16,18,6,-1,12
,,,,,,,,,,,,,,,,,,
82,1,1,37,21,1,1,Slide25.bmp,3129,1,9,0,6,7,16,18,6,-1,12
,,,,,,,,,,,,,,,,,,
82,1,1,27,17,1,1,Slide32.bmp,1353,6,0,1,6,7,16,18,6,-1,12
,,,,,,,,,,,,,,,,,,
82,1,1,36,14,5,5,Slide24.bmp,5971,6,5,0,6,7,16,18,6,-1,12
,,,,,,,,,,,,,,,,,,
82,1,1,10,13,8,8,Slide20.bmp,7039,6,8,0,6,7,16,18,6,-1,12
,,,,,,,,,,,,,,,,,,
82,1,1,14,9,9,9,Slide32.bmp,3335,2,0,1,6,7,16,18,6,-1,12
,,,,,,,,,,,,,,,,,,
82,1,1,11,6,7,7,Slide21.bmp,5474,2,3,0,6,7,16,18,6,-1,12
,,,,,,,,,,,,,,,,,,
82,1,1,24,5,3,3,Slide23.bmp,13893,2,7,0,6,7,16,18,6,-1,12
,,,,,,,,,,,,,,,,,,
83,1,1,66,41,3,3,Slide32.bmp,7212,4,0,7,7,5,17,15,10,2,5
,,,,,,,,,,,,,,,,,,
83,1,1,11,38,5,5,Slide21.bmp,3021,4,5,0,7,5,17,15,10,2,5
,,,,,,,,,,,,,,,,,,
83,1,1,62,37,7,7,Slide28.bmp,2589,4,7,0,7,5,17,15,10,2,5
,,,,,,,,,,,,,,,,,,
83,1,1,53,33,6,6,Slide32.bmp,7120,6,0,6,7,5,17,15,10,2,5
,,,,,,,,,,,,,,,,,,
83,1,1,49,30,7,7,Slide26.bmp,4787,6,7,0,7,5,17,15,10,2,5
,,,,,,,,,,,,,,,,,,
83,1,1,63,29,3,3,Slide29.bmp,5313,6,7,0,7,5,17,15,10,2,5
,,,,,,,,,,,,,,,,,,
83,1,1,27,17,5,5,Slide32.bmp,1511,1,0,5,7,5,17,15,10,2,5
,,,,,,,,,,,,,,,,,,
83,1,1,23,14,7,7,Slide22.bmp,5497,1,7,0,7,5,17,15,10,2,5
,,,,,,,,,,,,,,,,,,
83,1,1,36,13,6,6,Slide24.bmp,3893,1,6,0,7,5,17,15,10,2,5
,,,,,,,,,,,,,,,,,,
83,1,1,14,9,6,6,Slide32.bmp,5424,2,0,4,7,5,17,15,10,2,5
,,,,,,,,,,,,,,,,,,
83,1,1,10,6,4,4,Slide20.bmp,8655,2,4,0,7,5,17,15,10,2,5
,,,,,,,,,,,,,,,,,,
83,1,1,50,5,6,6,Slide27.bmp,15963,2,4,0,7,5,17,15,10,2,5
,,,,,,,,,,,,,,,,,,
84,1,1,53,33,8,8,Slide32.bmp,1810,2,0,8,5,7,20,19,12,-2,7
,,,,,,,,,,,,,,,,,,
84,1,1,36,30,8,8,Slide24.bmp,4429,2,8,0,5,7,20,19,12,-2,7
,,,,,,,,,,,,,,,,,,
84,1,1,63,29,2,2,Slide29.bmp,2286,2,8,0,5,7,20,19,12,-2,7
,,,,,,,,,,,,,,,,,,
84,1,1,40,25,5,5,Slide32.bmp,4239,1,0,5,5,7,20,19,12,-2,7
,,,,,,,,,,,,,,,,,,
84,1,1,11,22,3,3,Slide21.bmp,3450,1,7,0,5,7,20,19,12,-2,7
,,,,,,,,,,,,,,,,,,
84,1,1,24,21,8,8,Slide23.bmp,3309,1,2,0,5,7,20,19,12,-2,7
,,,,,,,,,,,,,,,,,,
84,1,1,27,17,2,2,Slide32.bmp,1959,6,0,2,5,7,20,19,12,-2,7
,,,,,,,,,,,,,,,,,,
84,1,1,62,14,8,8,Slide28.bmp,9053,6,8,0,5,7,20,19,12,-2,7
,,,,,,,,,,,,,,,,,,
84,1,1,10,13,2,2,Slide20.bmp,3350,6,2,0,5,7,20,19,12,-2,7
,,,,,,,,,,,,,,,,,,
85,1,1,66,41,2,2,Slide32.bmp,1262,1,0,8,10,5,21,18,12,5,6
,,,,,,,,,,,,,,,,,,
85,1,1,63,38,3,3,Slide29.bmp,3020,1,7,0,10,5,21,18,12,5,6
,,,,,,,,,,,,,,,,,,
85,1,1,23,37,5,5,Slide22.bmp,6488,1,5,0,10,5,21,18,12,5,6
,,,,,,,,,,,,,,,,,,
85,1,1,27,17,8,8,Slide32.bmp,1936,2,0,8,10,5,21,18,12,5,6
,,,,,,,,,,,,,,,,,,
85,1,1,62,14,7,7,Slide28.bmp,4241,2,7,0,10,5,21,18,12,5,6
,,,,,,,,,,,,,,,,,,
85,1,1,10,13,5,5,Slide20.bmp,5474,2,5,0,10,5,21,18,12,5,6
,,,,,,,,,,,,,,,,,,
86,1,1,53,33,9,9,Slide32.bmp,2849,1,0,9,6,10,18,15,13,-4,2
,,,,,,,,,,,,,,,,,,
86,1,1,11,30,5,5,Slide21.bmp,28196,1,5,0,6,10,18,15,13,-4,2
,,,,,,,,,,,,,,,,,,
86,1,1,10,29,4,4,Slide20.bmp,8577,1,4,0,6,10,18,15,13,-4,2
,,,,,,,,,,,,,,,,,,
86,1,1,40,25,1,1,Slide32.bmp,4062,6,0,9,6,10,18,15,13,-4,2
,,,,,,,,,,,,,,,,,,
86,1,1,23,22,4,4,Slide22.bmp,7927,6,4,0,6,10,18,15,13,-4,2
,,,,,,,,,,,,,,,,,,
86,1,1,24,21,2,2,Slide23.bmp,4416,6,8,0,6,10,18,15,13,-4,2
,,,,,,,,,,,,,,,,,,
86,1,1,27,17,9,9,Slide32.bmp,5186,2,0,9,6,10,18,15,13,-4,2
,,,,,,,,,,,,,,,,,,
86,1,1,49,14,8,8,Slide26.bmp,6482,2,8,0,6,10,18,15,13,-4,2
,,,,,,,,,,,,,,,,,,
86,1,1,50,13,2,2,Slide27.bmp,6734,2,8,0,6,10,18,15,13,-4,2
,,,,,,,,,,,,,,,,,,
86,1,1,14,9,1,1,Slide32.bmp,3043,4,0,9,6,10,18,15,13,-4,2
,,,,,,,,,,,,,,,,,,
86,1,1,62,6,7,7,Slide28.bmp,7716,4,7,0,6,10,18,15,13,-4,2
,,,,,,,,,,,,,,,,,,
86,1,1,63,5,7,7,Slide29.bmp,23915,4,3,0,6,10,18,15,13,-4,2
,,,,,,,,,,,,,,,,,,
87,1,1,53,33,4,4,Slide32.bmp,1756,1,0,4,8,6,18,21,10,2,11
,,,,,,,,,,,,,,,,,,
87,1,1,62,30,5,5,Slide28.bmp,12074,1,5,0,8,6,18,21,10,2,11
,,,,,,,,,,,,,,,,,,
87,1,1,36,29,6,6,Slide24.bmp,15674,1,6,0,8,6,18,21,10,2,11
,,,,,,,,,,,,,,,,,,
87,1,1,40,25,3,3,Slide32.bmp,2910,4,0,7,8,6,18,21,10,2,11
,,,,,,,,,,,,,,,,,,
87,1,1,63,22,6,6,Slide29.bmp,9208,4,4,0,8,6,18,21,10,2,11
,,,,,,,,,,,,,,,,,,
87,1,1,23,21,3,3,Slide22.bmp,5192,4,3,0,8,6,18,21,10,2,11
,,,,,,,,,,,,,,,,,,
87,1,1,27,17,9,9,Slide32.bmp,5522,2,0,9,8,6,18,21,10,2,11
,,,,,,,,,,,,,,,,,,
87,1,1,49,14,6,6,Slide26.bmp,8053,2,6,0,8,6,18,21,10,2,11
,,,,,,,,,,,,,,,,,,
87,1,1,50,13,5,5,Slide27.bmp,7890,2,5,0,8,6,18,21,10,2,11
,,,,,,,,,,,,,,,,,,
88,1,1,66,41,4,4,Slide32.bmp,4265,6,0,6,11,6,9,11,12,5,-1
,,,,,,,,,,,,,,,,,,
88,1,1,36,38,6,6,Slide24.bmp,2974,6,6,0,11,6,9,11,12,5,-1
,,,,,,,,,,,,,,,,,,
88,1,1,63,37,3,3,Slide29.bmp,2499,6,7,0,11,6,9,11,12,5,-1
,,,,,,,,,,,,,,,,,,
88,1,1,53,33,4,4,Slide32.bmp,4005,1,0,4,11,6,9,11,12,5,-1
,,,,,,,,,,,,,,,,,,
88,1,1,49,30,9,9,Slide26.bmp,5441,1,9,0,11,6,9,11,12,5,-1
,,,,,,,,,,,,,,,,,,
88,1,1,37,29,3,3,Slide25.bmp,7951,1,7,0,11,6,9,11,12,5,-1
,,,,,,,,,,,,,,,,,,
88,1,1,40,25,7,7,Slide32.bmp,3451,4,0,3,11,6,9,11,12,5,-1
,,,,,,,,,,,,,,,,,,
88,1,1,62,22,9,9,Slide28.bmp,3944,4,9,0,11,6,9,11,12,5,-1
,,,,,,,,,,,,,,,,,,
88,1,1,24,21,6,6,Slide23.bmp,7879,4,4,0,11,6,9,11,12,5,-1
,,,,,,,,,,,,,,,,,,
88,1,1,27,17,4,4,Slide32.bmp,4965,7,0,4,11,6,9,11,12,5,-1
,,,,,,,,,,,,,,,,,,
88,1,1,11,14,4,4,Slide21.bmp,4570,7,6,0,11,6,9,11,12,5,-1
,,,,,,,,,,,,,,,,,,
88,1,1,10,13,2,2,Slide20.bmp,2448,7,2,0,11,6,9,11,12,5,-1
,,,,,,,,,,,,,,,,,,
88,1,1,14,9,7,7,Slide32.bmp,4907,2,0,3,11,6,9,11,12,5,-1
,,,,,,,,,,,,,,,,,,
88,1,1,23,6,3,3,Slide22.bmp,5848,2,3,0,11,6,9,11,12,5,-1
,,,,,,,,,,,,,,,,,,
88,1,1,50,5,9,9,Slide27.bmp,8769,2,1,0,11,6,9,11,12,5,-1
,,,,,,,,,,,,,,,,,,
89,1,1,66,41,1,1,Slide32.bmp,2934,1,0,9,9,7,18,16,12,2,4
,,,,,,,,,,,,,,,,,,
89,1,1,10,38,8,8,Slide20.bmp,2090,1,8,0,9,7,18,16,12,2,4
,,,,,,,,,,,,,,,,,,
89,1,1,11,37,2,2,Slide21.bmp,1892,1,8,0,9,7,18,16,12,2,4
,,,,,,,,,,,,,,,,,,
89,1,1,40,25,4,4,Slide32.bmp,568,4,0,6,9,7,18,16,12,2,4
,,,,,,,,,,,,,,,,,,
89,1,1,49,22,8,8,Slide26.bmp,4607,4,8,0,9,7,18,16,12,2,4
,,,,,,,,,,,,,,,,,,
89,1,1,62,21,8,8,Slide28.bmp,3297,4,8,0,9,7,18,16,12,2,4
,,,,,,,,,,,,,,,,,,
89,1,1,14,9,7,7,Slide32.bmp,3629,2,0,3,9,7,18,16,12,2,4
,,,,,,,,,,,,,,,,,,
89,1,1,50,6,6,6,Slide27.bmp,9764,2,4,0,9,7,18,16,12,2,4
,,,,,,,,,,,,,,,,,,
89,1,1,36,5,9,9,Slide24.bmp,12471,2,9,0,9,7,18,16,12,2,4
,,,,,,,,,,,,,,,,,,
90,1,1,66,41,2,2,Slide32.bmp,395,4,0,8,4,6,15,19,10,-2,9
,,,,,,,,,,,,,,,,,,
90,1,1,50,38,4,4,Slide27.bmp,2861,4,6,0,4,6,15,19,10,-2,9
,,,,,,,,,,,,,,,,,,
90,1,1,11,37,3,3,Slide21.bmp,3578,4,7,0,4,6,15,19,10,-2,9
,,,,,,,,,,,,,,,,,,
90,1,1,53,33,3,3,Slide32.bmp,893,7,0,3,4,6,15,19,10,-2,9
,,,,,,,,,,,,,,,,,,
90,1,1,10,30,8,8,Slide20.bmp,5771,7,8,0,4,6,15,19,10,-2,9
,,,,,,,,,,,,,,,,,,
90,1,1,37,29,2,2,Slide25.bmp,2984,7,8,0,4,6,15,19,10,-2,9
,,,,,,,,,,,,,,,,,,
90,1,1,27,17,4,4,Slide32.bmp,1233,1,0,4,4,6,15,19,10,-2,9
,,,,,,,,,,,,,,,,,,
90,1,1,24,14,2,2,Slide23.bmp,5880,1,8,0,4,6,15,19,10,-2,9
,,,,,,,,,,,,,,,,,,
90,1,1,36,13,6,6,Slide24.bmp,4274,1,6,0,4,6,15,19,10,-2,9
,,,,,,,,,,,,,,,,,,
90,1,1,14,9,8,8,Slide32.bmp,3016,2,0,2,4,6,15,19,10,-2,9
,,,,,,,,,,,,,,,,,,
90,1,1,63,6,2,2,Slide29.bmp,5790,2,8,0,4,6,15,19,10,-2,9
,,,,,,,,,,,,,,,,,,
90,1,1,49,5,8,8,Slide26.bmp,5701,2,8,0,4,6,15,19,10,-2,9
,,,,,,,,,,,,,,,,,,
91,1,1,53,33,5,5,Slide32.bmp,2971,7,0,5,9,5,15,22,8,4,14
,,,,,,,,,,,,,,,,,,
91,1,1,24,30,3,3,Slide23.bmp,3190,7,7,0,9,5,15,22,8,4,14
,,,,,,,,,,,,,,,,,,
91,1,1,11,29,6,6,Slide21.bmp,6450,7,4,0,9,5,15,22,8,4,14
,,,,,,,,,,,,,,,,,,
91,1,1,40,25,4,4,Slide32.bmp,1902,2,0,6,9,5,15,22,8,4,14
,,,,,,,,,,,,,,,,,,
91,1,1,37,22,3,3,Slide25.bmp,4565,2,7,0,9,5,15,22,8,4,14
,,,,,,,,,,,,,,,,,,
91,1,1,36,21,7,7,Slide24.bmp,3272,2,7,0,9,5,15,22,8,4,14
,,,,,,,,,,,,,,,,,,
91,1,1,27,17,7,7,Slide32.bmp,2554,4,0,7,9,5,15,22,8,4,14
,,,,,,,,,,,,,,,,,,
91,1,1,62,14,7,7,Slide28.bmp,4752,4,7,0,9,5,15,22,8,4,14
,,,,,,,,,,,,,,,,,,
91,1,1,10,13,4,4,Slide20.bmp,7404,4,4,0,9,5,15,22,8,4,14
,,,,,,,,,,,,,,,,,,
91,1,1,14,9,7,7,Slide32.bmp,4961,1,0,3,9,5,15,22,8,4,14
,,,,,,,,,,,,,,,,,,
91,1,1,23,6,3,3,Slide22.bmp,3501,1,3,0,9,5,15,22,8,4,14
,,,,,,,,,,,,,,,,,,
91,1,1,50,5,8,8,Slide27.bmp,6725,1,2,0,9,5,15,22,8,4,14
,,,,,,,,,,,,,,,,,,
92,1,1,66,41,3,3,Slide32.bmp,786,2,0,7,9,6,20,12,16,3,-4
,,,,,,,,,,,,,,,,,,
92,1,1,23,38,6,6,Slide22.bmp,3345,2,6,0,9,6,20,12,16,3,-4
,,,,,,,,,,,,,,,,,,
92,1,1,50,37,4,4,Slide27.bmp,4291,2,6,0,9,6,20,12,16,3,-4
,,,,,,,,,,,,,,,,,,
92,1,1,53,33,5,5,Slide32.bmp,1086,7,0,5,9,6,20,12,16,3,-4
,,,,,,,,,,,,,,,,,,
92,1,1,11,30,3,3,Slide21.bmp,981,7,7,0,9,6,20,12,16,3,-4
,,,,,,,,,,,,,,,,,,
92,1,1,63,29,3,3,Slide29.bmp,2328,7,7,0,9,6,20,12,16,3,-4
,,,,,,,,,,,,,,,,,,
92,1,1,40,25,3,3,Slide32.bmp,1565,4,0,7,9,6,20,12,16,3,-4
,,,,,,,,,,,,,,,,,,
92,1,1,36,22,8,8,Slide24.bmp,1754,4,8,0,9,6,20,12,16,3,-4
,,,,,,,,,,,,,,,,,,
92,1,1,24,21,4,4,Slide23.bmp,2421,4,6,0,9,6,20,12,16,3,-4
,,,,,,,,,,,,,,,,,,
92,1,1,27,17,3,3,Slide32.bmp,2752,1,0,3,9,6,20,12,16,3,-4
,,,,,,,,,,,,,,,,,,
92,1,1,62,14,8,8,Slide28.bmp,6250,1,8,0,9,6,20,12,16,3,-4
,,,,,,,,,,,,,,,,,,
92,1,1,10,13,3,3,Slide20.bmp,5527,1,3,0,9,6,20,12,16,3,-4
,,,,,,,,,,,,,,,,,,
92,1,1,14,9,7,7,Slide32.bmp,2853,6,0,3,9,6,20,12,16,3,-4
,,,,,,,,,,,,,,,,,,
92,1,1,37,6,6,6,Slide25.bmp,7057,6,4,0,9,6,20,12,16,3,-4
,,,,,,,,,,,,,,,,,,
92,1,1,49,5,7,7,Slide26.bmp,7202,6,7,0,9,6,20,12,16,3,-4
,,,,,,,,,,,,,,,,,,
93,1,1,53,33,8,8,Slide32.bmp,888,1,0,8,10,4,17,19,20,6,-1
,,,,,,,,,,,,,,,,,,
93,1,1,62,30,6,6,Slide28.bmp,3049,1,6,0,10,4,17,19,20,6,-1
,,,,,,,,,,,,,,,,,,
93,1,1,11,29,7,7,Slide21.bmp,3106,1,3,0,10,4,17,19,20,6,-1
,,,,,,,,,,,,,,,,,,
93,1,1,40,25,3,3,Slide32.bmp,516,2,0,7,10,4,17,19,20,6,-1
,,,,,,,,,,,,,,,,,,
93,1,1,36,22,4,4,Slide24.bmp,7870,2,4,0,10,4,17,19,20,6,-1
,,,,,,,,,,,,,,,,,,
93,1,1,50,21,8,8,Slide27.bmp,4283,2,2,0,10,4,17,19,20,6,-1
,,,,,,,,,,,,,,,,,,
93,1,1,27,17,5,5,Slide32.bmp,1536,6,0,5,10,4,17,19,20,6,-1
,,,,,,,,,,,,,,,,,,
93,1,1,63,14,8,8,Slide29.bmp,7829,6,2,0,10,4,17,19,20,6,-1
,,,,,,,,,,,,,,,,,,
93,1,1,23,13,3,3,Slide22.bmp,2996,6,3,0,10,4,17,19,20,6,-1
,,,,,,,,,,,,,,,,,,
93,1,1,14,9,3,3,Slide32.bmp,6173,4,0,7,10,4,17,19,20,6,-1
,,,,,,,,,,,,,,,,,,
93,1,1,24,6,8,8,Slide23.bmp,11684,4,2,0,10,4,17,19,20,6,-1
,,,,,,,,,,,,,,,,,,
93,1,1,49,5,1,1,Slide26.bmp,2165,4,1,0,10,4,17,19,20,6,-1
,,,,,,,,,,,,,,,,,,
94,1,1,53,33,8,8,Slide32.bmp,3063,2,0,8,6,7,23,18,14,-1,4
,,,,,,,,,,,,,,,,,,
94,1,1,49,30,4,4,Slide26.bmp,7573,2,4,0,6,7,23,18,14,-1,4
,,,,,,,,,,,,,,,,,,
94,1,1,10,29,3,3,Slide20.bmp,3606,2,3,0,6,7,23,18,14,-1,4
,,,,,,,,,,,,,,,,,,
94,1,1,27,17,8,8,Slide32.bmp,3433,1,0,8,6,7,23,18,14,-1,4
,,,,,,,,,,,,,,,,,,
94,1,1,24,14,2,2,Slide23.bmp,7834,1,8,0,6,7,23,18,14,-1,4
,,,,,,,,,,,,,,,,,,
94,1,1,11,13,3,3,Slide21.bmp,30520,1,7,0,6,7,23,18,14,-1,4
,,,,,,,,,,,,,,,,,,
94,1,1,14,9,2,2,Slide32.bmp,8477,4,0,8,6,7,23,18,14,-1,4
,,,,,,,,,,,,,,,,,,
94,1,1,50,6,9,9,Slide27.bmp,14915,4,1,0,6,7,23,18,14,-1,4
,,,,,,,,,,,,,,,,,,
94,1,1,37,5,5,5,Slide25.bmp,23066,4,5,0,6,7,23,18,14,-1,4
,,,,,,,,,,,,,,,,,,
95,1,1,66,41,4,4,Slide32.bmp,372,2,0,6,4,7,16,16,6,-3,10
,,,,,,,,,,,,,,,,,,
95,1,1,10,38,4,4,Slide20.bmp,3431,2,4,0,4,7,16,16,6,-3,10
,,,,,,,,,,,,,,,,,,
95,1,1,36,37,7,7,Slide24.bmp,2022,2,7,0,4,7,16,16,6,-3,10
,,,,,,,,,,,,,,,,,,
95,1,1,53,33,7,7,Slide32.bmp,1709,4,0,7,4,7,16,16,6,-3,10
,,,,,,,,,,,,,,,,,,
95,1,1,11,30,6,6,Slide21.bmp,2563,4,4,0,4,7,16,16,6,-3,10
,,,,,,,,,,,,,,,,,,
95,1,1,62,29,4,4,Slide28.bmp,10293,4,4,0,4,7,16,16,6,-3,10
,,,,,,,,,,,,,,,,,,
95,1,1,40,25,6,6,Slide32.bmp,1702,1,0,4,4,7,16,16,6,-3,10
,,,,,,,,,,,,,,,,,,
95,1,1,37,22,6,6,Slide25.bmp,3995,1,4,0,4,7,16,16,6,-3,10
,,,,,,,,,,,,,,,,,,
95,1,1,23,21,4,4,Slide22.bmp,9204,1,4,0,4,7,16,16,6,-3,10
,,,,,,,,,,,,,,,,,,
96,1,1,66,41,7,7,Slide32.bmp,5088,6,0,3,9,3,15,15,10,6,5
,,,,,,,,,,,,,,,,,,
96,1,1,62,38,6,6,Slide28.bmp,3623,6,6,0,9,3,15,15,10,6,5
,,,,,,,,,,,,,,,,,,
96,1,1,50,37,4,4,Slide27.bmp,4393,6,6,0,9,3,15,15,10,6,5
,,,,,,,,,,,,,,,,,,
96,1,1,40,25,1,1,Slide32.bmp,839,1,0,9,9,3,15,15,10,6,5
,,,,,,,,,,,,,,,,,,
96,1,1,37,22,5,5,Slide25.bmp,6355,1,5,0,9,3,15,15,10,6,5
,,,,,,,,,,,,,,,,,,
96,1,1,49,21,7,7,Slide26.bmp,2572,1,7,0,9,3,15,15,10,6,5
,,,,,,,,,,,,,,,,,,
96,1,1,27,17,5,5,Slide32.bmp,6369,2,0,5,9,3,15,15,10,6,5
,,,,,,,,,,,,,,,,,,
96,1,1,63,14,4,4,Slide29.bmp,5596,2,6,0,9,3,15,15,10,6,5
,,,,,,,,,,,,,,,,,,
96,1,1,10,13,4,4,Slide20.bmp,4982,2,4,0,9,3,15,15,10,6,5
,,,,,,,,,,,,,,,,,,
96,1,1,14,9,3,3,Slide32.bmp,5299,7,0,7,9,3,15,15,10,6,5
,,,,,,,,,,,,,,,,,,
96,1,1,24,6,9,9,Slide23.bmp,8084,7,1,0,9,3,15,15,10,6,5
,,,,,,,,,,,,,,,,,,
96,1,1,11,5,5,5,Slide21.bmp,8907,7,5,0,9,3,15,15,10,6,5
,,,,,,,,,,,,,,,,,,
97,1,1,66,41,1,1,Slide32.bmp,394,1,0,9,4,6,23,13,18,-2,-5
,,,,,,,,,,,,,,,,,,
97,1,1,10,38,5,5,Slide20.bmp,2679,1,5,0,4,6,23,13,18,-2,-5
,,,,,,,,,,,,,,,,,,
97,1,1,37,37,3,3,Slide25.bmp,2834,1,7,0,4,6,23,13,18,-2,-5
,,,,,,,,,,,,,,,,,,
97,1,1,53,33,1,1,Slide32.bmp,425,2,0,1,4,6,23,13,18,-2,-5
,,,,,,,,,,,,,,,,,,
97,1,1,36,30,5,5,Slide24.bmp,2329,2,5,0,4,6,23,13,18,-2,-5
,,,,,,,,,,,,,,,,,,
97,1,1,49,29,8,8,Slide26.bmp,2763,2,8,0,4,6,23,13,18,-2,-5
,,,,,,,,,,,,,,,,,,
97,1,1,14,9,8,8,Slide32.bmp,4479,6,0,2,4,6,23,13,18,-2,-5
,,,,,,,,,,,,,,,,,,
97,1,1,11,6,7,7,Slide21.bmp,5506,6,3,0,4,6,23,13,18,-2,-5
,,,,,,,,,,,,,,,,,,
97,1,1,23,5,4,4,Slide22.bmp,16054,6,4,0,4,6,23,13,18,-2,-5
,,,,,,,,,,,,,,,,,,
98,1,1,66,41,2,2,Slide32.bmp,1358,4,0,8,7,5,22,17,16,2,1
,,,,,,,,,,,,,,,,,,
98,1,1,36,38,7,7,Slide24.bmp,2761,4,7,0,7,5,22,17,16,2,1
,,,,,,,,,,,,,,,,,,
98,1,1,63,37,8,8,Slide29.bmp,6208,4,2,0,7,5,22,17,16,2,1
,,,,,,,,,,,,,,,,,,
98,1,1,53,33,6,6,Slide32.bmp,1095,1,0,6,7,5,22,17,16,2,1
,,,,,,,,,,,,,,,,,,
98,1,1,23,30,3,3,Slide22.bmp,2836,1,3,0,7,5,22,17,16,2,1
,,,,,,,,,,,,,,,,,,
98,1,1,24,29,5,5,Slide23.bmp,8689,1,5,0,7,5,22,17,16,2,1
,,,,,,,,,,,,,,,,,,
98,1,1,40,25,1,1,Slide32.bmp,566,6,0,9,7,5,22,17,16,2,1
,,,,,,,,,,,,,,,,,,
98,1,1,50,22,7,7,Slide27.bmp,5184,6,3,0,7,5,22,17,16,2,1
,,,,,,,,,,,,,,,,,,
98,1,1,10,21,3,3,Slide20.bmp,3798,6,3,0,7,5,22,17,16,2,1
,,,,,,,,,,,,,,,,,,
98,1,1,27,17,5,5,Slide32.bmp,680,2,0,5,7,5,22,17,16,2,1
,,,,,,,,,,,,,,,,,,
98,1,1,37,14,3,3,Slide25.bmp,4577,2,7,0,7,5,22,17,16,2,1
,,,,,,,,,,,,,,,,,,
98,1,1,11,13,5,5,Slide21.bmp,5600,2,5,0,7,5,22,17,16,2,1
,,,,,,,,,,,,,,,,,,
99,1,1,66,41,1,1,Slide32.bmp,1278,6,0,9,4,8,18,19,9,-4,10
,,,,,,,,,,,,,,,,,,
99,1,1,24,38,2,2,Slide23.bmp,1766,6,8,0,4,8,18,19,9,-4,10
,,,,,,,,,,,,,,,,,,
99,1,1,10,37,2,2,Slide20.bmp,2253,6,2,0,4,8,18,19,9,-4,10
,,,,,,,,,,,,,,,,,,
99,1,1,53,33,8,8,Slide32.bmp,490,1,0,8,4,8,18,19,9,-4,10
,,,,,,,,,,,,,,,,,,
99,1,1,62,30,7,7,Slide28.bmp,4888,1,7,0,4,8,18,19,9,-4,10
,,,,,,,,,,,,,,,,,,
99,1,1,11,29,7,7,Slide21.bmp,4783,1,3,0,4,8,18,19,9,-4,10
,,,,,,,,,,,,,,,,,,
99,1,1,40,25,4,4,Slide32.bmp,994,7,0,6,4,8,18,19,9,-4,10
,,,,,,,,,,,,,,,,,,
99,1,1,37,22,3,3,Slide25.bmp,2321,7,7,0,4,8,18,19,9,-4,10
,,,,,,,,,,,,,,,,,,
99,1,1,50,21,4,4,Slide27.bmp,4190,7,6,0,4,8,18,19,9,-4,10
,,,,,,,,,,,,,,,,,,
99,1,1,27,17,7,7,Slide32.bmp,2069,2,0,7,4,8,18,19,9,-4,10
,,,,,,,,,,,,,,,,,,
99,1,1,23,14,3,3,Slide22.bmp,3771,2,3,0,4,8,18,19,9,-4,10
,,,,,,,,,,,,,,,,,,
99,1,1,49,13,8,8,Slide26.bmp,3731,2,8,0,4,8,18,19,9,-4,10
,,,,,,,,,,,,,,,,,,
99,1,1,14,9,3,3,Slide32.bmp,2749,4,0,7,4,8,18,19,9,-4,10
,,,,,,,,,,,,,,,,,,
99,1,1,63,6,1,1,Slide29.bmp,3991,4,9,0,4,8,18,19,9,-4,10
,,,,,,,,,,,,,,,,,,
99,1,1,36,5,5,5,Slide24.bmp,9767,4,5,0,4,8,18,19,9,-4,10
,,,,,,,,,,,,,,,,,,
100,1,1,66,41,3,3,Slide32.bmp,1562,2,0,7,4,8,18,15,16,-4,-1
,,,,,,,,,,,,,,,,,,
100,1,1,63,38,8,8,Slide29.bmp,5720,2,2,0,4,8,18,15,16,-4,-1
,,,,,,,,,,,,,,,,,,
100,1,1,62,37,7,7,Slide28.bmp,3189,2,7,0,4,8,18,15,16,-4,-1
,,,,,,,,,,,,,,,,,,
100,1,1,53,33,7,7,Slide32.bmp,1803,1,0,7,4,8,18,15,16,-4,-1
,,,,,,,,,,,,,,,,,,
100,1,1,24,30,3,3,Slide23.bmp,5066,1,7,0,4,8,18,15,16,-4,-1
,,,,,,,,,,,,,,,,,,
100,1,1,36,29,4,4,Slide24.bmp,4430,1,4,0,4,8,18,15,16,-4,-1
,,,,,,,,,,,,,,,,,,
100,1,1,27,17,3,3,Slide32.bmp,4884,4,0,3,4,8,18,15,16,-4,-1
,,,,,,,,,,,,,,,,,,
100,1,1,49,14,3,3,Slide26.bmp,6522,4,3,0,4,8,18,15,16,-4,-1
,,,,,,,,,,,,,,,,,,
100,1,1,37,13,7,7,Slide25.bmp,6284,4,3,0,4,8,18,15,16,-4,-1
,,,,,,,,,,,,,,,,,,
101,1,1,66,41,5,5,Slide32.bmp,394,2,0,5,8,6,19,16,8,2,8
,,,,,,,,,,,,,,,,,,
101,1,1,23,38,5,5,Slide22.bmp,1836,2,5,0,8,6,19,16,8,2,8
,,,,,,,,,,,,,,,,,,
101,1,1,63,37,2,2,Slide29.bmp,2387,2,8,0,8,6,19,16,8,2,8
,,,,,,,,,,,,,,,,,,
101,1,1,27,17,8,8,Slide32.bmp,733,4,0,8,8,6,19,16,8,2,8
,,,,,,,,,,,,,,,,,,
101,1,1,49,14,6,6,Slide26.bmp,4315,4,6,0,8,6,19,16,8,2,8
,,,,,,,,,,,,,,,,,,
101,1,1,24,13,8,8,Slide23.bmp,3463,4,2,0,8,6,19,16,8,2,8
,,,,,,,,,,,,,,,,,,
101,1,1,14,9,7,7,Slide32.bmp,4040,1,0,3,8,6,19,16,8,2,8
,,,,,,,,,,,,,,,,,,
101,1,1,11,6,8,8,Slide21.bmp,4662,1,2,0,8,6,19,16,8,2,8
,,,,,,,,,,,,,,,,,,
101,1,1,62,5,5,5,Slide28.bmp,9776,1,5,0,8,6,19,16,8,2,8
,,,,,,,,,,,,,,,,,,
102,1,1,27,17,3,3,Slide32.bmp,617,1,0,3,9,4,24,19,19,5,0
,,,,,,,,,,,,,,,,,,
102,1,1,10,14,2,2,Slide20.bmp,2546,1,2,0,9,4,24,19,19,5,0
,,,,,,,,,,,,,,,,,,
102,1,1,23,13,4,4,Slide22.bmp,2790,1,4,0,9,4,24,19,19,5,0
,,,,,,,,,,,,,,,,,,
102,1,1,14,9,4,4,Slide32.bmp,2401,2,0,6,9,4,24,19,19,5,0
,,,,,,,,,,,,,,,,,,
102,1,1,11,6,3,3,Slide21.bmp,2539,2,7,0,9,4,24,19,19,5,0
,,,,,,,,,,,,,,,,,,
102,1,1,37,5,5,5,Slide25.bmp,24263,2,5,0,9,4,24,19,19,5,0
,,,,,,,,,,,,,,,,,,
103,1,1,66,41,2,2,Slide32.bmp,872,2,0,8,7,6,9,11,19,1,-8
,,,,,,,,,,,,,,,,,,
103,1,1,49,38,8,8,Slide26.bmp,6094,2,8,0,7,6,9,11,19,1,-8
,,,,,,,,,,,,,,,,,,
103,1,1,23,37,4,4,Slide22.bmp,7025,2,4,0,7,6,9,11,19,1,-8
,,,,,,,,,,,,,,,,,,
103,1,1,53,33,2,2,Slide32.bmp,1233,4,0,2,7,6,9,11,19,1,-8
,,,,,,,,,,,,,,,,,,
103,1,1,36,30,7,7,Slide24.bmp,7114,4,7,0,7,6,9,11,19,1,-8
,,,,,,,,,,,,,,,,,,
103,1,1,10,29,4,4,Slide20.bmp,7960,4,4,0,7,6,9,11,19,1,-8
,,,,,,,,,,,,,,,,,,
103,1,1,27,17,9,9,Slide32.bmp,1387,6,0,9,7,6,9,11,19,1,-8
,,,,,,,,,,,,,,,,,,
103,1,1,50,14,2,2,Slide27.bmp,2315,6,8,0,7,6,9,11,19,1,-8
,,,,,,,,,,,,,,,,,,
103,1,1,24,13,2,2,Slide23.bmp,2956,6,8,0,7,6,9,11,19,1,-8
,,,,,,,,,,,,,,,,,,
103,1,1,14,9,9,9,Slide32.bmp,2967,1,0,1,7,6,9,11,19,1,-8
,,,,,,,,,,,,,,,,,,
103,1,1,62,6,8,8,Slide28.bmp,4016,1,8,0,7,6,9,11,19,1,-8
,,,,,,,,,,,,,,,,,,
103,1,1,63,5,3,3,Slide29.bmp,17846,1,7,0,7,6,9,11,19,1,-8
,,,,,,,,,,,,,,,,,,
104,1,1,66,41,4,4,Slide32.bmp,2258,6,0,6,10,5,20,14,15,5,-1
,,,,,,,,,,,,,,,,,,
104,1,1,50,38,4,4,Slide27.bmp,3777,6,6,0,10,5,20,14,15,5,-1
,,,,,,,,,,,,,,,,,,
104,1,1,10,37,3,3,Slide20.bmp,7820,6,3,0,10,5,20,14,15,5,-1
,,,,,,,,,,,,,,,,,,
104,1,1,53,33,6,6,Slide32.bmp,2577,7,0,6,10,5,20,14,15,5,-1
,,,,,,,,,,,,,,,,,,
104,1,1,63,30,3,3,Slide29.bmp,3064,7,7,0,10,5,20,14,15,5,-1
,,,,,,,,,,,,,,,,,,
104,1,1,24,29,3,3,Slide23.bmp,6779,7,7,0,10,5,20,14,15,5,-1
,,,,,,,,,,,,,,,,,,
104,1,1,40,25,3,3,Slide32.bmp,2070,2,0,7,10,5,20,14,15,5,-1
,,,,,,,,,,,,,,,,,,
104,1,1,37,22,4,4,Slide25.bmp,6819,2,6,0,10,5,20,14,15,5,-1
,,,,,,,,,,,,,,,,,,
104,1,1,23,21,4,4,Slide22.bmp,4076,2,4,0,10,5,20,14,15,5,-1
,,,,,,,,,,,,,,,,,,
104,1,1,27,17,6,6,Slide32.bmp,1992,1,0,6,10,5,20,14,15,5,-1
,,,,,,,,,,,,,,,,,,
104,1,1,36,14,5,5,Slide24.bmp,9787,1,5,0,10,5,20,14,15,5,-1
,,,,,,,,,,,,,,,,,,
104,1,1,11,13,6,6,Slide21.bmp,10595,1,4,0,10,5,20,14,15,5,-1
,,,,,,,,,,,,,,,,,,
104,1,1,14,9,6,6,Slide32.bmp,8267,4,0,4,10,5,20,14,15,5,-1
,,,,,,,,,,,,,,,,,,
104,1,1,49,6,7,7,Slide26.bmp,6614,4,7,0,10,5,20,14,15,5,-1
,,,,,,,,,,,,,,,,,,
104,1,1,62,5,7,7,Slide28.bmp,21180,4,7,0,10,5,20,14,15,5,-1
,,,,,,,,,,,,,,,,,,
105,1,1,66,41,1,1,Slide32.bmp,610,2,0,9,13,3,25,14,23,10,-9
,,,,,,,,,,,,,,,,,,
105,1,1,36,38,8,8,Slide24.bmp,1751,2,8,0,13,3,25,14,23,10,-9
,,,,,,,,,,,,,,,,,,
105,1,1,24,37,9,9,Slide23.bmp,4557,2,1,0,13,3,25,14,23,10,-9
,,,,,,,,,,,,,,,,,,
105,1,1,53,33,3,3,Slide32.bmp,2571,6,0,3,13,3,25,14,23,10,-9
,,,,,,,,,,,,,,,,,,
105,1,1,37,30,1,1,Slide25.bmp,3981,6,9,0,13,3,25,14,23,10,-9
,,,,,,,,,,,,,,,,,,
105,1,1,63,29,1,1,Slide29.bmp,1805,6,9,0,13,3,25,14,23,10,-9
,,,,,,,,,,,,,,,,,,
105,1,1,40,25,1,1,Slide32.bmp,704,1,0,9,13,3,25,14,23,10,-9
,,,,,,,,,,,,,,,,,,
105,1,1,10,22,2,2,Slide20.bmp,3671,1,2,0,13,3,25,14,23,10,-9
,,,,,,,,,,,,,,,,,,
105,1,1,62,21,9,9,Slide28.bmp,10809,1,9,0,13,3,25,14,23,10,-9
,,,,,,,,,,,,,,,,,,
105,1,1,27,17,2,2,Slide32.bmp,2705,4,0,2,13,3,25,14,23,10,-9
,,,,,,,,,,,,,,,,,,
105,1,1,49,14,8,8,Slide26.bmp,9215,4,8,0,13,3,25,14,23,10,-9
,,,,,,,,,,,,,,,,,,
105,1,1,11,13,1,1,Slide21.bmp,11131,4,9,0,13,3,25,14,23,10,-9
,,,,,,,,,,,,,,,,,,
106,1,1,66,41,2,2,Slide32.bmp,484,2,0,8,6,5,22,17,14,1,3
,,,,,,,,,,,,,,,,,,
106,1,1,62,38,9,9,Slide28.bmp,2353,2,9,0,6,5,22,17,14,1,3
,,,,,,,,,,,,,,,,,,
106,1,1,24,37,4,4,Slide23.bmp,3462,2,6,0,6,5,22,17,14,1,3
,,,,,,,,,,,,,,,,,,
106,1,1,40,25,6,6,Slide32.bmp,1806,6,0,4,6,5,22,17,14,1,3
,,,,,,,,,,,,,,,,,,
106,1,1,10,22,6,6,Slide20.bmp,5358,6,6,0,6,5,22,17,14,1,3
,,,,,,,,,,,,,,,,,,
106,1,1,36,21,9,9,Slide24.bmp,3113,6,9,0,6,5,22,17,14,1,3
,,,,,,,,,,,,,,,,,,
106,1,1,27,17,8,8,Slide32.bmp,1869,1,0,8,6,5,22,17,14,1,3
,,,,,,,,,,,,,,,,,,
106,1,1,23,14,8,8,Slide22.bmp,4412,1,8,0,6,5,22,17,14,1,3
,,,,,,,,,,,,,,,,,,
106,1,1,50,13,4,4,Slide27.bmp,4142,1,6,0,6,5,22,17,14,1,3
,,,,,,,,,,,,,,,,,,
106,1,1,14,9,2,2,Slide32.bmp,1659,4,0,8,6,5,22,17,14,1,3
,,,,,,,,,,,,,,,,,,
106,1,1,37,6,3,3,Slide25.bmp,4385,4,7,0,6,5,22,17,14,1,3
,,,,,,,,,,,,,,,,,,
106,1,1,63,5,2,2,Slide29.bmp,5504,4,8,0,6,5,22,17,14,1,3
,,,,,,,,,,,,,,,,,,
107,1,1,53,33,8,8,Slide32.bmp,2672,1,0,8,6,8,17,15,9,-2,6
,,,,,,,,,,,,,,,,,,
107,1,1,63,30,1,1,Slide29.bmp,2125,1,9,0,6,8,17,15,9,-2,6
,,,,,,,,,,,,,,,,,,
107,1,1,11,29,5,5,Slide21.bmp,3686,1,5,0,6,8,17,15,9,-2,6
,,,,,,,,,,,,,,,,,,
107,1,1,40,25,5,5,Slide32.bmp,672,4,0,5,6,8,17,15,9,-2,6
,,,,,,,,,,,,,,,,,,
107,1,1,49,22,5,5,Slide26.bmp,1524,4,5,0,6,8,17,15,9,-2,6
,,,,,,,,,,,,,,,,,,
107,1,1,36,21,5,5,Slide24.bmp,3871,4,5,0,6,8,17,15,9,-2,6
,,,,,,,,,,,,,,,,,,
107,1,1,27,17,5,5,Slide32.bmp,3683,2,0,5,6,8,17,15,9,-2,6
,,,,,,,,,,,,,,,,,,
107,1,1,24,14,3,3,Slide23.bmp,4475,2,7,0,6,8,17,15,9,-2,6
,,,,,,,,,,,,,,,,,,
107,1,1,50,13,5,5,Slide27.bmp,3487,2,5,0,6,8,17,15,9,-2,6
,,,,,,,,,,,,,,,,,,
107,1,1,14,9,1,1,Slide32.bmp,2734,6,0,9,6,8,17,15,9,-2,6
,,,,,,,,,,,,,,,,,,
107,1,1,10,6,5,5,Slide20.bmp,2082,6,5,0,6,8,17,15,9,-2,6
,,,,,,,,,,,,,,,,,,
107,1,1,62,5,5,5,Slide28.bmp,6792,6,5,0,6,8,17,15,9,-2,6
,,,,,,,,,,,,,,,,,,
108,1,1,66,41,4,4,Slide32.bmp,2230,1,0,6,7,7,22,13,16,0,-3
,,,,,,,,,,,,,,,,,,
108,1,1,10,38,2,2,Slide20.bmp,4492,1,2,0,7,7,22,13,16,0,-3
,,,,,,,,,,,,,,,,,,
108,1,1,49,37,9,9,Slide26.bmp,4370,1,9,0,7,7,22,13,16,0,-3
,,,,,,,,,,,,,,,,,,
108,1,1,27,17,8,8,Slide32.bmp,3749,2,0,8,7,7,22,13,16,0,-3
,,,,,,,,,,,,,,,,,,
108,1,1,36,14,7,7,Slide24.bmp,8133,2,7,0,7,7,22,13,16,0,-3
,,,,,,,,,,,,,,,,,,
108,1,1,23,13,4,4,Slide22.bmp,6559,2,4,0,7,7,22,13,16,0,-3
,,,,,,,,,,,,,,,,,,
108,1,1,14,9,7,7,Slide32.bmp,5478,4,0,3,7,7,22,13,16,0,-3
,,,,,,,,,,,,,,,,,,
108,1,1,62,6,9,9,Slide28.bmp,4810,4,9,0,7,7,22,13,16,0,-3
,,,,,,,,,,,,,,,,,,
108,1,1,37,5,1,1,Slide25.bmp,6751,4,9,0,7,7,22,13,16,0,-3
,,,,,,,,,,,,,,,,,,
109,1,1,66,41,2,2,Slide32.bmp,1074,1,0,8,7,4,17,19,10,3,9
,,,,,,,,,,,,,,,,,,
109,1,1,62,38,9,9,Slide28.bmp,2814,1,9,0,7,4,17,19,10,3,9
,,,,,,,,,,,,,,,,,,
109,1,1,10,37,1,1,Slide20.bmp,2253,1,1,0,7,4,17,19,10,3,9
,,,,,,,,,,,,,,,,,,
109,1,1,53,33,7,7,Slide32.bmp,1745,7,0,7,7,4,17,19,10,3,9
,,,,,,,,,,,,,,,,,,
109,1,1,63,30,2,2,Slide29.bmp,5255,7,8,0,7,4,17,19,10,3,9
,,,,,,,,,,,,,,,,,,
109,1,1,50,29,8,8,Slide27.bmp,6205,7,2,0,7,4,17,19,10,3,9
,,,,,,,,,,,,,,,,,,
109,1,1,40,25,2,2,Slide32.bmp,3637,2,0,8,7,4,17,19,10,3,9
,,,,,,,,,,,,,,,,,,
109,1,1,23,22,2,2,Slide22.bmp,7072,2,2,0,7,4,17,19,10,3,9
,,,,,,,,,,,,,,,,,,
109,1,1,36,21,7,7,Slide24.bmp,5536,2,7,0,7,4,17,19,10,3,9
,,,,,,,,,,,,,,,,,,
109,1,1,27,17,9,9,Slide32.bmp,1916,4,0,9,7,4,17,19,10,3,9
,,,,,,,,,,,,,,,,,,
109,1,1,37,14,8,8,Slide25.bmp,5531,4,2,0,7,4,17,19,10,3,9
,,,,,,,,,,,,,,,,,,
109,1,1,11,13,9,9,Slide21.bmp,3459,4,1,0,7,4,17,19,10,3,9
,,,,,,,,,,,,,,,,,,
109,1,1,14,9,1,1,Slide32.bmp,2764,6,0,9,7,4,17,19,10,3,9
,,,,,,,,,,,,,,,,,,
109,1,1,24,6,8,8,Slide23.bmp,6434,6,2,0,7,4,17,19,10,3,9
,,,,,,,,,,,,,,,,,,
109,1,1,49,5,8,8,Slide26.bmp,14981,6,8,0,7,4,17,19,10,3,9
,,,,,,,,,,,,,,,,,,
110,1,1,66,41,3,3,Slide32.bmp,1885,6,0,7,10,6,21,14,16,4,-2
,,,,,,,,,,,,,,,,,,
110,1,1,49,38,4,4,Slide26.bmp,2827,6,4,0,10,6,21,14,16,4,-2
,,,,,,,,,,,,,,,,,,
110,1,1,11,37,2,2,Slide21.bmp,3739,6,8,0,10,6,21,14,16,4,-2
,,,,,,,,,,,,,,,,,,
110,1,1,53,33,6,6,Slide32.bmp,2038,1,0,6,10,6,21,14,16,4,-2
,,,,,,,,,,,,,,,,,,
110,1,1,36,30,8,8,Slide24.bmp,4033,1,8,0,10,6,21,14,16,4,-2
,,,,,,,,,,,,,,,,,,
110,1,1,62,29,8,8,Slide28.bmp,3917,1,8,0,10,6,21,14,16,4,-2
,,,,,,,,,,,,,,,,,,
110,1,1,40,25,3,3,Slide32.bmp,712,2,0,7,10,6,21,14,16,4,-2
,,,,,,,,,,,,,,,,,,
110,1,1,23,22,3,3,Slide22.bmp,4142,2,3,0,10,6,21,14,16,4,-2
,,,,,,,,,,,,,,,,,,
110,1,1,63,21,5,5,Slide29.bmp,3761,2,5,0,10,6,21,14,16,4,-2
,,,,,,,,,,,,,,,,,,
111,1,1,66,41,2,2,Slide32.bmp,1301,6,0,8,8,6,24,22,6,2,16
,,,,,,,,,,,,,,,,,,
111,1,1,49,38,3,3,Slide26.bmp,4879,6,3,0,8,6,24,22,6,2,16
,,,,,,,,,,,,,,,,,,
111,1,1,37,37,2,2,Slide25.bmp,2414,6,8,0,8,6,24,22,6,2,16
,,,,,,,,,,,,,,,,,,
111,1,1,53,33,9,9,Slide32.bmp,1692,1,0,9,8,6,24,22,6,2,16
,,,,,,,,,,,,,,,,,,
111,1,1,23,30,2,2,Slide22.bmp,2458,1,2,0,8,6,24,22,6,2,16
,,,,,,,,,,,,,,,,,,
111,1,1,62,29,7,7,Slide28.bmp,4657,1,7,0,8,6,24,22,6,2,16
,,,,,,,,,,,,,,,,,,
111,1,1,40,25,5,5,Slide32.bmp,1303,4,0,5,8,6,24,22,6,2,16
,,,,,,,,,,,,,,,,,,
111,1,1,36,22,5,5,Slide24.bmp,10620,4,5,0,8,6,24,22,6,2,16
,,,,,,,,,,,,,,,,,,
111,1,1,50,21,3,3,Slide27.bmp,5823,4,7,0,8,6,24,22,6,2,16
,,,,,,,,,,,,,,,,,,
111,1,1,14,9,1,1,Slide32.bmp,2753,2,0,9,8,6,24,22,6,2,16
,,,,,,,,,,,,,,,,,,
111,1,1,24,6,1,1,Slide23.bmp,6083,2,9,0,8,6,24,22,6,2,16
,,,,,,,,,,,,,,,,,,
111,1,1,11,5,9,9,Slide21.bmp,6634,2,1,0,8,6,24,22,6,2,16
,,,,,,,,,,,,,,,,,,
112,1,1,66,41,8,8,Slide32.bmp,660,4,0,2,9,4,16,17,13,5,4
,,,,,,,,,,,,,,,,,,
112,1,1,36,38,5,5,Slide24.bmp,3269,4,5,0,9,4,16,17,13,5,4
,,,,,,,,,,,,,,,,,,
112,1,1,49,37,7,7,Slide26.bmp,6248,4,7,0,9,4,16,17,13,5,4
,,,,,,,,,,,,,,,,,,
112,1,1,40,25,8,8,Slide32.bmp,634,6,0,2,9,4,16,17,13,5,4
,,,,,,,,,,,,,,,,,,
112,1,1,63,22,5,5,Slide29.bmp,5251,6,5,0,9,4,16,17,13,5,4
,,,,,,,,,,,,,,,,,,
112,1,1,50,21,8,8,Slide27.bmp,6117,6,2,0,9,4,16,17,13,5,4
,,,,,,,,,,,,,,,,,,
112,1,1,27,17,4,4,Slide32.bmp,2758,1,0,4,9,4,16,17,13,5,4
,,,,,,,,,,,,,,,,,,
112,1,1,62,14,6,6,Slide28.bmp,4418,1,6,0,9,4,16,17,13,5,4
,,,,,,,,,,,,,,,,,,
112,1,1,24,13,2,2,Slide23.bmp,18371,1,8,0,9,4,16,17,13,5,4
,,,,,,,,,,,,,,,,,,
112,1,1,14,9,9,9,Slide32.bmp,4752,2,0,1,9,4,16,17,13,5,4
,,,,,,,,,,,,,,,,,,
112,1,1,23,6,1,1,Slide22.bmp,4218,2,1,0,9,4,16,17,13,5,4
,,,,,,,,,,,,,,,,,,
112,1,1,37,5,9,9,Slide25.bmp,7076,2,1,0,9,4,16,17,13,5,4
,,,,,,,,,,,,,,,,,,
113,1,1,66,41,3,3,Slide32.bmp,1955,4,0,7,7,7,21,20,10,0,10
,,,,,,,,,,,,,,,,,,
113,1,1,11,38,2,2,Slide21.bmp,3504,4,8,0,7,7,21,20,10,0,10
,,,,,,,,,,,,,,,,,,
113,1,1,23,37,5,5,Slide22.bmp,2905,4,5,0,7,7,21,20,10,0,10
,,,,,,,,,,,,,,,,,,
113,1,1,40,25,3,3,Slide32.bmp,2492,1,0,7,7,7,21,20,10,0,10
,,,,,,,,,,,,,,,,,,
113,1,1,62,22,7,7,Slide28.bmp,7332,1,7,0,7,7,21,20,10,0,10
,,,,,,,,,,,,,,,,,,
113,1,1,63,21,2,2,Slide29.bmp,5825,1,8,0,7,7,21,20,10,0,10
,,,,,,,,,,,,,,,,,,
113,1,1,27,17,8,8,Slide32.bmp,2061,2,0,8,7,7,21,20,10,0,10
,,,,,,,,,,,,,,,,,,
113,1,1,50,14,5,5,Slide27.bmp,4208,2,5,0,7,7,21,20,10,0,10
,,,,,,,,,,,,,,,,,,
113,1,1,37,13,5,5,Slide25.bmp,3911,2,5,0,7,7,21,20,10,0,10
,,,,,,,,,,,,,,,,,,
113,1,1,14,9,6,6,Slide32.bmp,3883,7,0,4,7,7,21,20,10,0,10
,,,,,,,,,,,,,,,,,,
113,1,1,36,6,7,7,Slide24.bmp,6000,7,7,0,7,7,21,20,10,0,10
,,,,,,,,,,,,,,,,,,
113,1,1,10,5,4,4,Slide20.bmp,10272,7,4,0,7,7,21,20,10,0,10
,,,,,,,,,,,,,,,,,,
114,1,1,66,41,1,1,Slide32.bmp,2756,4,0,9,9,4,19,20,11,5,9
,,,,,,,,,,,,,,,,,,
114,1,1,63,38,2,2,Slide29.bmp,4922,4,8,0,9,4,19,20,11,5,9
,,,,,,,,,,,,,,,,,,
114,1,1,11,37,8,8,Slide21.bmp,3912,4,2,0,9,4,19,20,11,5,9
,,,,,,,,,,,,,,,,,,
114,1,1,53,33,8,8,Slide32.bmp,993,1,0,8,9,4,19,20,11,5,9
,,,,,,,,,,,,,,,,,,
114,1,1,10,30,3,3,Slide20.bmp,4272,1,3,0,9,4,19,20,11,5,9
,,,,,,,,,,,,,,,,,,
114,1,1,50,29,4,4,Slide27.bmp,10676,1,6,0,9,4,19,20,11,5,9
,,,,,,,,,,,,,,,,,,
114,1,1,40,25,5,5,Slide32.bmp,2446,6,0,5,9,4,19,20,11,5,9
,,,,,,,,,,,,,,,,,,
114,1,1,23,22,4,4,Slide22.bmp,8542,6,4,0,9,4,19,20,11,5,9
,,,,,,,,,,,,,,,,,,
114,1,1,49,21,5,5,Slide26.bmp,5200,6,5,0,9,4,19,20,11,5,9
,,,,,,,,,,,,,,,,,,
114,1,1,27,17,8,8,Slide32.bmp,1734,7,0,8,9,4,19,20,11,5,9
,,,,,,,,,,,,,,,,,,
114,1,1,24,14,7,7,Slide23.bmp,3609,7,3,0,9,4,19,20,11,5,9
,,,,,,,,,,,,,,,,,,
114,1,1,36,13,6,6,Slide24.bmp,9971,7,6,0,9,4,19,20,11,5,9
,,,,,,,,,,,,,,,,,,
114,1,1,14,9,6,6,Slide32.bmp,5001,2,0,4,9,4,19,20,11,5,9
,,,,,,,,,,,,,,,,,,
114,1,1,62,6,3,3,Slide28.bmp,8066,2,3,0,9,4,19,20,11,5,9
,,,,,,,,,,,,,,,,,,
114,1,1,37,5,7,7,Slide25.bmp,9420,2,3,0,9,4,19,20,11,5,9
,,,,,,,,,,,,,,,,,,
115,1,1,66,41,7,7,Slide32.bmp,1570,4,0,3,9,6,17,16,10,3,6
,,,,,,,,,,,,,,,,,,
115,1,1,62,38,5,5,Slide28.bmp,1923,4,5,0,9,6,17,16,10,3,6
,,,,,,,,,,,,,,,,,,
115,1,1,63,37,2,2,Slide29.bmp,2127,4,8,0,9,6,17,16,10,3,6
,,,,,,,,,,,,,,,,,,
115,1,1,40,25,3,3,Slide32.bmp,2671,2,0,7,9,6,17,16,10,3,6
,,,,,,,,,,,,,,,,,,
115,1,1,50,22,3,3,Slide27.bmp,4301,2,7,0,9,6,17,16,10,3,6
,,,,,,,,,,,,,,,,,,
115,1,1,23,21,4,4,Slide22.bmp,3362,2,4,0,9,6,17,16,10,3,6
,,,,,,,,,,,,,,,,,,
115,1,1,27,17,3,3,Slide32.bmp,2919,1,0,3,9,6,17,16,10,3,6
,,,,,,,,,,,,,,,,,,
115,1,1,11,14,5,5,Slide21.bmp,2654,1,5,0,9,6,17,16,10,3,6
,,,,,,,,,,,,,,,,,,
115,1,1,36,13,4,4,Slide24.bmp,3828,1,4,0,9,6,17,16,10,3,6
,,,,,,,,,,,,,,,,,,
115,1,1,14,9,9,9,Slide32.bmp,5775,6,0,1,9,6,17,16,10,3,6
,,,,,,,,,,,,,,,,,,
115,1,1,49,6,7,7,Slide26.bmp,3819,6,7,0,9,6,17,16,10,3,6
,,,,,,,,,,,,,,,,,,
115,1,1,37,5,6,6,Slide25.bmp,9443,6,4,0,9,6,17,16,10,3,6
,,,,,,,,,,,,,,,,,,
116,1,1,66,41,5,5,Slide32.bmp,2822,7,0,5,9,5,15,20,11,4,9
,,,,,,,,,,,,,,,,,,
116,1,1,36,38,5,5,Slide24.bmp,10221,7,5,0,9,5,15,20,11,4,9
,,,,,,,,,,,,,,,,,,
116,1,1,49,37,7,7,Slide26.bmp,3713,7,7,0,9,5,15,20,11,4,9
,,,,,,,,,,,,,,,,,,
116,1,1,53,33,7,7,Slide32.bmp,1734,1,0,7,9,5,15,20,11,4,9
,,,,,,,,,,,,,,,,,,
116,1,1,11,30,6,6,Slide21.bmp,8640,1,4,0,9,5,15,20,11,4,9
,,,,,,,,,,,,,,,,,,
116,1,1,23,29,5,5,Slide22.bmp,5970,1,5,0,9,5,15,20,11,4,9
,,,,,,,,,,,,,,,,,,
116,1,1,40,25,5,5,Slide32.bmp,505,6,0,5,9,5,15,20,11,4,9
,,,,,,,,,,,,,,,,,,
116,1,1,62,22,7,7,Slide28.bmp,3305,6,7,0,9,5,15,20,11,4,9
,,,,,,,,,,,,,,,,,,
116,1,1,24,21,5,5,Slide23.bmp,4346,6,5,0,9,5,15,20,11,4,9
,,,,,,,,,,,,,,,,,,
116,1,1,27,17,4,4,Slide32.bmp,2871,2,0,4,9,5,15,20,11,4,9
,,,,,,,,,,,,,,,,,,
116,1,1,10,14,5,5,Slide20.bmp,5765,2,5,0,9,5,15,20,11,4,9
,,,,,,,,,,,,,,,,,,
116,1,1,50,13,3,3,Slide27.bmp,3130,2,7,0,9,5,15,20,11,4,9
,,,,,,,,,,,,,,,,,,
116,1,1,14,9,3,3,Slide32.bmp,4226,4,0,7,9,5,15,20,11,4,9
,,,,,,,,,,,,,,,,,,
116,1,1,63,6,4,4,Slide29.bmp,9797,4,6,0,9,5,15,20,11,4,9
,,,,,,,,,,,,,,,,,,
116,1,1,37,5,3,3,Slide25.bmp,12913,4,7,0,9,5,15,20,11,4,9
,,,,,,,,,,,,,,,,,,
117,1,1,66,41,3,3,Slide32.bmp,691,4,0,7,9,3,12,15,14,6,1
,,,,,,,,,,,,,,,,,,
117,1,1,23,38,4,4,Slide22.bmp,4419,4,4,0,9,3,12,15,14,6,1
,,,,,,,,,,,,,,,,,,
117,1,1,11,37,4,4,Slide21.bmp,3151,4,6,0,9,3,12,15,14,6,1
,,,,,,,,,,,,,,,,,,
117,1,1,40,25,5,5,Slide32.bmp,462,1,0,5,9,3,12,15,14,6,1
,,,,,,,,,,,,,,,,,,
117,1,1,62,22,5,5,Slide28.bmp,5501,1,5,0,9,3,12,15,14,6,1
,,,,,,,,,,,,,,,,,,
117,1,1,24,21,5,5,Slide23.bmp,7706,1,5,0,9,3,12,15,14,6,1
,,,,,,,,,,,,,,,,,,
117,1,1,27,17,6,6,Slide32.bmp,2885,2,0,6,9,3,12,15,14,6,1
,,,,,,,,,,,,,,,,,,
117,1,1,36,14,8,8,Slide24.bmp,3982,2,8,0,9,3,12,15,14,6,1
,,,,,,,,,,,,,,,,,,
117,1,1,10,13,2,2,Slide20.bmp,2778,2,2,0,9,3,12,15,14,6,1
,,,,,,,,,,,,,,,,,,
118,1,1,66,41,4,4,Slide32.bmp,1934,2,0,6,6,4,21,13,16,2,-3
,,,,,,,,,,,,,,,,,,
118,1,1,11,38,1,1,Slide21.bmp,3573,2,9,0,6,4,21,13,16,2,-3
,,,,,,,,,,,,,,,,,,
118,1,1,62,37,8,8,Slide28.bmp,4497,2,8,0,6,4,21,13,16,2,-3
,,,,,,,,,,,,,,,,,,
118,1,1,53,33,9,9,Slide32.bmp,3317,7,0,9,6,4,21,13,16,2,-3
,,,,,,,,,,,,,,,,,,
118,1,1,49,30,9,9,Slide26.bmp,3705,7,9,0,6,4,21,13,16,2,-3
,,,,,,,,,,,,,,,,,,
118,1,1,23,29,5,5,Slide22.bmp,12425,7,5,0,6,4,21,13,16,2,-3
,,,,,,,,,,,,,,,,,,
118,1,1,40,25,2,2,Slide32.bmp,1312,6,0,8,6,4,21,13,16,2,-3
,,,,,,,,,,,,,,,,,,
118,1,1,10,22,2,2,Slide20.bmp,7683,6,2,0,6,4,21,13,16,2,-3
,,,,,,,,,,,,,,,,,,
118,1,1,63,21,5,5,Slide29.bmp,16348,6,5,0,6,4,21,13,16,2,-3
,,,,,,,,,,,,,,,,,,
118,1,1,27,17,9,9,Slide32.bmp,3885,1,0,9,6,4,21,13,16,2,-3
,,,,,,,,,,,,,,,,,,
118,1,1,24,14,1,1,Slide23.bmp,14125,1,9,0,6,4,21,13,16,2,-3
,,,,,,,,,,,,,,,,,,
118,1,1,50,13,8,8,Slide27.bmp,12747,1,2,0,6,4,21,13,16,2,-3
,,,,,,,,,,,,,,,,,,
118,1,1,14,9,3,3,Slide32.bmp,8831,4,0,7,6,4,21,13,16,2,-3
,,,,,,,,,,,,,,,,,,
118,1,1,37,6,2,2,Slide25.bmp,18634,4,8,0,6,4,21,13,16,2,-3
,,,,,,,,,,,,,,,,,,
118,1,1,36,5,5,5,Slide24.bmp,14103,4,5,0,6,4,21,13,16,2,-3
,,,,,,,,,,,,,,,,,,
119,1,1,66,41,1,1,Slide32.bmp,742,4,0,9,6,5,16,24,6,1,18
,,,,,,,,,,,,,,,,,,
119,1,1,10,38,4,4,Slide20.bmp,2520,4,4,0,6,5,16,24,6,1,18
,,,,,,,,,,,,,,,,,,
119,1,1,37,37,2,2,Slide25.bmp,4499,4,8,0,6,5,16,24,6,1,18
,,,,,,,,,,,,,,,,,,
119,1,1,40,25,1,1,Slide32.bmp,816,1,0,9,6,5,16,24,6,1,18
,,,,,,,,,,,,,,,,,,
119,1,1,23,22,4,4,Slide22.bmp,9542,1,4,0,6,5,16,24,6,1,18
,,,,,,,,,,,,,,,,,,
119,1,1,49,21,7,7,Slide26.bmp,19628,1,7,0,6,5,16,24,6,1,18
,,,,,,,,,,,,,,,,,,
119,1,1,27,17,3,3,Slide32.bmp,7929,2,0,3,6,5,16,24,6,1,18
,,,,,,,,,,,,,,,,,,
119,1,1,63,14,3,3,Slide29.bmp,9728,2,7,0,6,5,16,24,6,1,18
,,,,,,,,,,,,,,,,,,
119,1,1,24,13,5,5,Slide23.bmp,8646,2,5,0,6,5,16,24,6,1,18
,,,,,,,,,,,,,,,,,,
120,1,1,53,33,7,7,Slide32.bmp,5567,4,0,7,11,4,9,14,11,7,3
,,,,,,,,,,,,,,,,,,
120,1,1,49,30,3,3,Slide26.bmp,6925,4,3,0,11,4,9,14,11,7,3
,,,,,,,,,,,,,,,,,,
120,1,1,62,29,8,8,Slide28.bmp,7710,4,8,0,11,4,9,14,11,7,3
,,,,,,,,,,,,,,,,,,
120,1,1,27,17,6,6,Slide32.bmp,3462,1,0,6,11,4,9,14,11,7,3
,,,,,,,,,,,,,,,,,,
120,1,1,50,14,6,6,Slide27.bmp,6409,1,4,0,11,4,9,14,11,7,3
,,,,,,,,,,,,,,,,,,
120,1,1,11,13,5,5,Slide21.bmp,11109,1,5,0,11,4,9,14,11,7,3
,,,,,,,,,,,,,,,,,,
120,1,1,14,9,2,2,Slide32.bmp,6239,2,0,8,11,4,9,14,11,7,3
,,,,,,,,,,,,,,,,,,
120,1,1,24,6,7,7,Slide23.bmp,15114,2,3,0,11,4,9,14,11,7,3
,,,,,,,,,,,,,,,,,,
120,1,1,37,5,3,3,Slide25.bmp,32406,2,7,0,11,4,9,14,11,7,3
,,,,,,,,,,,,,,,,,,
121,1,1,66,41,3,3,Slide32.bmp,370,6,0,7,11,6,16,16,15,5,1
,,,,,,,,,,,,,,,,,,
121,1,1,49,38,7,7,Slide26.bmp,3076,6,7,0,11,6,16,16,15,5,1
,,,,,,,,,,,,,,,,,,
121,1,1,23,37,5,5,Slide22.bmp,3966,6,5,0,11,6,16,16,15,5,1
,,,,,,,,,,,,,,,,,,
121,1,1,40,25,4,4,Slide32.bmp,3172,1,0,6,11,6,16,16,15,5,1
,,,,,,,,,,,,,,,,,,
121,1,1,63,22,1,1,Slide29.bmp,3609,1,9,0,11,6,16,16,15,5,1
,,,,,,,,,,,,,,,,,,
121,1,1,11,21,2,2,Slide21.bmp,2846,1,8,0,11,6,16,16,15,5,1
,,,,,,,,,,,,,,,,,,
121,1,1,27,17,7,7,Slide32.bmp,2125,2,0,7,11,6,16,16,15,5,1
,,,,,,,,,,,,,,,,,,
121,1,1,62,14,8,8,Slide28.bmp,5886,2,8,0,11,6,16,16,15,5,1
,,,,,,,,,,,,,,,,,,
121,1,1,10,13,4,4,Slide20.bmp,8310,2,4,0,11,6,16,16,15,5,1
,,,,,,,,,,,,,,,,,,
121,1,1,14,9,3,3,Slide32.bmp,2645,4,0,7,11,6,16,16,15,5,1
,,,,,,,,,,,,,,,,,,
121,1,1,50,6,5,5,Slide27.bmp,10053,4,5,0,11,6,16,16,15,5,1
,,,,,,,,,,,,,,,,,,
121,1,1,36,5,9,9,Slide24.bmp,8073,4,9,0,11,6,16,16,15,5,1
,,,,,,,,,,,,,,,,,,
122,1,1,66,41,5,5,Slide32.bmp,716,4,0,5,11,4,18,9,19,7,-10
,,,,,,,,,,,,,,,,,,
122,1,1,23,38,4,4,Slide22.bmp,5798,4,4,0,11,4,18,9,19,7,-10
,,,,,,,,,,,,,,,,,,
122,1,1,49,37,6,6,Slide26.bmp,4002,4,6,0,11,4,18,9,19,7,-10
,,,,,,,,,,,,,,,,,,
122,1,1,53,33,9,9,Slide32.bmp,1332,1,0,9,11,4,18,9,19,7,-10
,,,,,,,,,,,,,,,,,,
122,1,1,11,30,4,4,Slide21.bmp,2457,1,6,0,11,4,18,9,19,7,-10
,,,,,,,,,,,,,,,,,,
122,1,1,50,29,3,3,Slide27.bmp,6407,1,7,0,11,4,18,9,19,7,-10
,,,,,,,,,,,,,,,,,,
122,1,1,27,17,7,7,Slide32.bmp,1687,6,0,7,11,4,18,9,19,7,-10
,,,,,,,,,,,,,,,,,,
